"","WorkerID","Trial","TimeStamp","Condition","Argument1","Argument2","Correct","ConditionID","Testarg1","Testarg2","Question","Response","ResponseImage","RT"
"2703",74,8,1477924820638,"7"," static/images/o6.png"," static/images/o3.png"," static/images/o5.png"," Not"," static/images/o2.png"," static/images/o5.png"," d c"," a"," static/images/o6.png",15418
"2704",74,9,1477924827629,"7"," static/images/o6.png"," static/images/o3.png"," static/images/o5.png"," Not"," static/images/o3.png"," static/images/o3.png"," b b"," b"," static/images/o3.png",5566
"2705",74,10,1477924834631,"7"," static/images/o6.png"," static/images/o3.png"," static/images/o5.png"," Not"," static/images/o6.png"," static/images/o5.png"," a c"," b"," static/images/o3.png",5761
"2706",74,11,1477924849726,"7"," static/images/o6.png"," static/images/o3.png"," static/images/o5.png"," Not"," static/images/o2.png"," static/images/o6.png"," d a"," c"," static/images/o5.png",13663
"2707",74,12,1477924853688,"7"," static/images/o6.png"," static/images/o3.png"," static/images/o5.png"," Not"," static/images/o6.png"," static/images/o3.png"," a b"," c"," static/images/o5.png",3233
"2708",74,13,1477924857844,"7"," static/images/o6.png"," static/images/o3.png"," static/images/o5.png"," Not"," static/images/o5.png"," static/images/o6.png"," c a"," b"," static/images/o3.png",3336
"2709",74,14,1477924862936,"7"," static/images/o6.png"," static/images/o3.png"," static/images/o5.png"," Not"," static/images/o3.png"," static/images/o5.png"," b c"," a"," static/images/o6.png",4447
"2710",74,15,1477924869497,"7"," static/images/o6.png"," static/images/o3.png"," static/images/o5.png"," Not"," static/images/o3.png"," static/images/o2.png"," b d"," a"," static/images/o6.png",5817
"2711",74,16,1477924872846,"7"," static/images/o6.png"," static/images/o3.png"," static/images/o5.png"," Not"," static/images/o6.png"," static/images/o6.png"," a a"," a"," static/images/o6.png",2325
"2712",74,17,1477924876462,"7"," static/images/o6.png"," static/images/o3.png"," static/images/o5.png"," Not"," static/images/o3.png"," static/images/o6.png"," b a"," c"," static/images/o5.png",2729
"2713",74,18,1477924879610,"7"," static/images/o6.png"," static/images/o3.png"," static/images/o5.png"," Not"," static/images/o5.png"," static/images/o5.png"," c c"," c"," static/images/o5.png",2513
"2714",74,19,1477924885019,"7"," static/images/o6.png"," static/images/o3.png"," static/images/o5.png"," Not"," static/images/o5.png"," static/images/o2.png"," c d"," a"," static/images/o6.png",4825
"2715",74,20,1477924891545,"7"," static/images/o6.png"," static/images/o3.png"," static/images/o5.png"," Not"," static/images/o5.png"," static/images/o3.png"," c b"," a"," static/images/o6.png",5897
"2716",74,21,1477924895480,"7"," static/images/o6.png"," static/images/o3.png"," static/images/o5.png"," Not"," static/images/o6.png"," static/images/o2.png"," a d"," b"," static/images/o3.png",3392
"2717",74,22,1477924901248,"7"," static/images/o6.png"," static/images/o3.png"," static/images/o5.png"," Not"," static/images/o2.png"," static/images/o3.png"," d b"," a"," static/images/o6.png",5190
"2725",110,8,1477924804918,"5"," static/images/o3.png"," static/images/o3.png"," static/images/o1.png"," Constant"," static/images/o1.png"," static/images/o3.png"," b a"," b"," static/images/o1.png",3514
"2726",110,9,1477924808768,"5"," static/images/o3.png"," static/images/o3.png"," static/images/o1.png"," Constant"," static/images/o3.png"," static/images/o5.png"," a c"," b"," static/images/o1.png",2000
"2727",110,10,1477924812041,"5"," static/images/o3.png"," static/images/o3.png"," static/images/o1.png"," Constant"," static/images/o5.png"," static/images/o1.png"," c b"," b"," static/images/o1.png",2292
"2728",110,11,1477924817924,"5"," static/images/o3.png"," static/images/o3.png"," static/images/o1.png"," Constant"," static/images/o4.png"," static/images/o5.png"," d c"," a"," static/images/o3.png",5028
"2729",110,12,1477924821964,"5"," static/images/o3.png"," static/images/o3.png"," static/images/o1.png"," Constant"," static/images/o3.png"," static/images/o3.png"," a a"," b"," static/images/o1.png",2735
"2730",110,13,1477924826308,"5"," static/images/o3.png"," static/images/o3.png"," static/images/o1.png"," Constant"," static/images/o1.png"," static/images/o5.png"," b c"," b"," static/images/o1.png",2667
"2731",110,14,1477924832050,"5"," static/images/o3.png"," static/images/o3.png"," static/images/o1.png"," Constant"," static/images/o5.png"," static/images/o5.png"," c c"," b"," static/images/o1.png",2797
"2732",110,15,1477924835872,"5"," static/images/o3.png"," static/images/o3.png"," static/images/o1.png"," Constant"," static/images/o4.png"," static/images/o1.png"," d b"," a"," static/images/o3.png",3177
"2733",110,16,1477924844249,"5"," static/images/o3.png"," static/images/o3.png"," static/images/o1.png"," Constant"," static/images/o4.png"," static/images/o3.png"," d a"," d"," static/images/o4.png",7677
"2734",110,17,1477924849538,"5"," static/images/o3.png"," static/images/o3.png"," static/images/o1.png"," Constant"," static/images/o1.png"," static/images/o1.png"," b b"," b"," static/images/o1.png",4190
"2735",110,18,1477924854105,"5"," static/images/o3.png"," static/images/o3.png"," static/images/o1.png"," Constant"," static/images/o5.png"," static/images/o4.png"," c d"," d"," static/images/o4.png",4140
"2736",110,19,1477924860514,"5"," static/images/o3.png"," static/images/o3.png"," static/images/o1.png"," Constant"," static/images/o3.png"," static/images/o1.png"," a b"," a"," static/images/o3.png",5806
"2737",110,20,1477924864664,"5"," static/images/o3.png"," static/images/o3.png"," static/images/o1.png"," Constant"," static/images/o1.png"," static/images/o4.png"," b d"," c"," static/images/o5.png",3464
"2738",110,21,1477924869461,"5"," static/images/o3.png"," static/images/o3.png"," static/images/o1.png"," Constant"," static/images/o5.png"," static/images/o3.png"," c a"," d"," static/images/o4.png",4237
"2739",110,22,1477924873429,"5"," static/images/o3.png"," static/images/o3.png"," static/images/o1.png"," Constant"," static/images/o3.png"," static/images/o4.png"," a d"," b"," static/images/o1.png",3109
"2747",116,8,1477924881964,"6"," static/images/o6.png"," static/images/o6.png"," static/images/o2.png"," Symmetry"," static/images/o4.png"," static/images/o2.png"," c b"," d"," static/images/o5.png",15222
"2748",116,9,1477924889911,"6"," static/images/o6.png"," static/images/o6.png"," static/images/o2.png"," Symmetry"," static/images/o4.png"," static/images/o6.png"," c a"," d"," static/images/o5.png",5959
"2749",116,10,1477924903483,"6"," static/images/o6.png"," static/images/o6.png"," static/images/o2.png"," Symmetry"," static/images/o5.png"," static/images/o6.png"," d a"," a"," static/images/o6.png",12495
"2750",116,11,1477924907255,"6"," static/images/o6.png"," static/images/o6.png"," static/images/o2.png"," Symmetry"," static/images/o5.png"," static/images/o2.png"," d b"," a"," static/images/o6.png",2691
"2751",116,12,1477924911004,"6"," static/images/o6.png"," static/images/o6.png"," static/images/o2.png"," Symmetry"," static/images/o6.png"," static/images/o2.png"," a b"," d"," static/images/o5.png",2888
"2752",116,13,1477924915883,"6"," static/images/o6.png"," static/images/o6.png"," static/images/o2.png"," Symmetry"," static/images/o5.png"," static/images/o4.png"," d c"," b"," static/images/o2.png",4127
"2753",116,14,1477924924019,"6"," static/images/o6.png"," static/images/o6.png"," static/images/o2.png"," Symmetry"," static/images/o4.png"," static/images/o5.png"," c d"," b"," static/images/o2.png",5640
"2754",116,15,1477924927668,"6"," static/images/o6.png"," static/images/o6.png"," static/images/o2.png"," Symmetry"," static/images/o6.png"," static/images/o6.png"," a a"," b"," static/images/o2.png",2424
"2755",116,16,1477924931939,"6"," static/images/o6.png"," static/images/o6.png"," static/images/o2.png"," Symmetry"," static/images/o6.png"," static/images/o4.png"," a c"," d"," static/images/o5.png",2519
"2756",116,17,1477924935979,"6"," static/images/o6.png"," static/images/o6.png"," static/images/o2.png"," Symmetry"," static/images/o4.png"," static/images/o4.png"," c c"," a"," static/images/o6.png",3344
"2757",116,18,1477924939179,"6"," static/images/o6.png"," static/images/o6.png"," static/images/o2.png"," Symmetry"," static/images/o2.png"," static/images/o2.png"," b b"," c"," static/images/o4.png",2196
"2758",116,19,1477924943620,"6"," static/images/o6.png"," static/images/o6.png"," static/images/o2.png"," Symmetry"," static/images/o2.png"," static/images/o6.png"," b a"," d"," static/images/o5.png",3888
"2759",116,20,1477924946867,"6"," static/images/o6.png"," static/images/o6.png"," static/images/o2.png"," Symmetry"," static/images/o2.png"," static/images/o4.png"," b c"," d"," static/images/o5.png",2671
"2760",116,21,1477924950860,"6"," static/images/o6.png"," static/images/o6.png"," static/images/o2.png"," Symmetry"," static/images/o6.png"," static/images/o5.png"," a d"," c"," static/images/o4.png",2791
"2761",116,22,1477924954436,"6"," static/images/o6.png"," static/images/o6.png"," static/images/o2.png"," Symmetry"," static/images/o2.png"," static/images/o5.png"," b d"," a"," static/images/o6.png",3143
"2769",186,8,1477924874253,"4"," static/images/o2.png"," static/images/o3.png"," static/images/o3.png"," ReturnSame"," static/images/o4.png"," static/images/o2.png"," d a"," a"," static/images/o2.png",9318
"2770",186,9,1477924885061,"4"," static/images/o2.png"," static/images/o3.png"," static/images/o3.png"," ReturnSame"," static/images/o2.png"," static/images/o3.png"," a b"," b"," static/images/o3.png",9208
"2771",186,10,1477924892966,"4"," static/images/o2.png"," static/images/o3.png"," static/images/o3.png"," ReturnSame"," static/images/o2.png"," static/images/o4.png"," a d"," d"," static/images/o4.png",6050
"2772",186,11,1477924906013,"4"," static/images/o2.png"," static/images/o3.png"," static/images/o3.png"," ReturnSame"," static/images/o6.png"," static/images/o3.png"," c b"," b"," static/images/o3.png",11888
"2773",186,12,1477924910902,"4"," static/images/o2.png"," static/images/o3.png"," static/images/o3.png"," ReturnSame"," static/images/o2.png"," static/images/o6.png"," a c"," c"," static/images/o6.png",3718
"2774",186,13,1477924916494,"4"," static/images/o2.png"," static/images/o3.png"," static/images/o3.png"," ReturnSame"," static/images/o3.png"," static/images/o3.png"," b b"," b"," static/images/o3.png",4640
"2775",186,14,1477924919317,"4"," static/images/o2.png"," static/images/o3.png"," static/images/o3.png"," ReturnSame"," static/images/o4.png"," static/images/o6.png"," d c"," c"," static/images/o6.png",2224
"2776",186,15,1477924922774,"4"," static/images/o2.png"," static/images/o3.png"," static/images/o3.png"," ReturnSame"," static/images/o2.png"," static/images/o2.png"," a a"," a"," static/images/o2.png",2680
"2777",186,16,1477924926487,"4"," static/images/o2.png"," static/images/o3.png"," static/images/o3.png"," ReturnSame"," static/images/o6.png"," static/images/o6.png"," c c"," c"," static/images/o6.png",2914
"2778",186,17,1477924931222,"4"," static/images/o2.png"," static/images/o3.png"," static/images/o3.png"," ReturnSame"," static/images/o6.png"," static/images/o2.png"," c a"," c"," static/images/o6.png",4022
"2779",186,18,1477924933854,"4"," static/images/o2.png"," static/images/o3.png"," static/images/o3.png"," ReturnSame"," static/images/o3.png"," static/images/o2.png"," b a"," a"," static/images/o2.png",1945
"2780",186,19,1477924936526,"4"," static/images/o2.png"," static/images/o3.png"," static/images/o3.png"," ReturnSame"," static/images/o4.png"," static/images/o3.png"," d b"," b"," static/images/o3.png",2031
"2781",186,20,1477924940422,"4"," static/images/o2.png"," static/images/o3.png"," static/images/o3.png"," ReturnSame"," static/images/o6.png"," static/images/o4.png"," c d"," c"," static/images/o6.png",3303
"2782",186,21,1477924944038,"4"," static/images/o2.png"," static/images/o3.png"," static/images/o3.png"," ReturnSame"," static/images/o3.png"," static/images/o6.png"," b c"," c"," static/images/o6.png",2976
"2783",186,22,1477924947829,"4"," static/images/o2.png"," static/images/o3.png"," static/images/o3.png"," ReturnSame"," static/images/o3.png"," static/images/o4.png"," b d"," d"," static/images/o4.png",3231
"2791",313,8,1477924829684,"1"," static/images/o3.png"," static/images/o3.png"," static/images/o6.png"," ApplytoSelfNew"," static/images/o6.png"," static/images/o5.png"," b c"," b"," static/images/o6.png",7386
"2792",313,9,1477924844887,"1"," static/images/o3.png"," static/images/o3.png"," static/images/o6.png"," ApplytoSelfNew"," static/images/o6.png"," static/images/o3.png"," b a"," a"," static/images/o3.png",10962
"2793",313,10,1477924854216,"1"," static/images/o3.png"," static/images/o3.png"," static/images/o6.png"," ApplytoSelfNew"," static/images/o6.png"," static/images/o6.png"," b b"," c"," static/images/o5.png",3776
"2794",313,11,1477924858720,"1"," static/images/o3.png"," static/images/o3.png"," static/images/o6.png"," ApplytoSelfNew"," static/images/o4.png"," static/images/o3.png"," d a"," b"," static/images/o6.png",3651
"2795",313,12,1477924869102,"1"," static/images/o3.png"," static/images/o3.png"," static/images/o6.png"," ApplytoSelfNew"," static/images/o6.png"," static/images/o4.png"," b d"," c"," static/images/o5.png",9737
"2796",313,13,1477924873800,"1"," static/images/o3.png"," static/images/o3.png"," static/images/o6.png"," ApplytoSelfNew"," static/images/o3.png"," static/images/o5.png"," a c"," a"," static/images/o3.png",3833
"2797",313,14,1477924878648,"1"," static/images/o3.png"," static/images/o3.png"," static/images/o6.png"," ApplytoSelfNew"," static/images/o5.png"," static/images/o6.png"," c b"," d"," static/images/o4.png",3413
"2798",313,15,1477924885206,"1"," static/images/o3.png"," static/images/o3.png"," static/images/o6.png"," ApplytoSelfNew"," static/images/o4.png"," static/images/o5.png"," d c"," c"," static/images/o5.png",5554
"2799",313,16,1477924891714,"1"," static/images/o3.png"," static/images/o3.png"," static/images/o6.png"," ApplytoSelfNew"," static/images/o4.png"," static/images/o6.png"," d b"," b"," static/images/o6.png",5893
"2800",313,17,1477924897334,"1"," static/images/o3.png"," static/images/o3.png"," static/images/o6.png"," ApplytoSelfNew"," static/images/o5.png"," static/images/o3.png"," c a"," d"," static/images/o4.png",4959
"2801",313,18,1477924900523,"1"," static/images/o3.png"," static/images/o3.png"," static/images/o6.png"," ApplytoSelfNew"," static/images/o3.png"," static/images/o6.png"," a b"," c"," static/images/o5.png",1956
"2802",313,19,1477924903598,"1"," static/images/o3.png"," static/images/o3.png"," static/images/o6.png"," ApplytoSelfNew"," static/images/o3.png"," static/images/o3.png"," a a"," b"," static/images/o6.png",2386
"2803",313,20,1477924910921,"1"," static/images/o3.png"," static/images/o3.png"," static/images/o6.png"," ApplytoSelfNew"," static/images/o5.png"," static/images/o5.png"," c c"," d"," static/images/o4.png",6148
"2804",313,21,1477924913963,"1"," static/images/o3.png"," static/images/o3.png"," static/images/o6.png"," ApplytoSelfNew"," static/images/o5.png"," static/images/o4.png"," c d"," d"," static/images/o4.png",2317
"2805",313,22,1477924918994,"1"," static/images/o3.png"," static/images/o3.png"," static/images/o6.png"," ApplytoSelfNew"," static/images/o3.png"," static/images/o4.png"," a d"," c"," static/images/o5.png",4300
"2813",10,8,1477924898492,"3"," static/images/o4.png"," static/images/o4.png"," static/images/o4.png"," ApplytoSelfSame"," static/images/o2.png"," static/images/o4.png"," c a"," b"," static/images/o3.png",12543
"2814",10,9,1477924913941,"3"," static/images/o4.png"," static/images/o4.png"," static/images/o4.png"," ApplytoSelfSame"," static/images/o2.png"," static/images/o3.png"," c b"," c"," static/images/o2.png",7977
"2815",10,10,1477924921923,"3"," static/images/o4.png"," static/images/o4.png"," static/images/o4.png"," ApplytoSelfSame"," static/images/o3.png"," static/images/o4.png"," b a"," b"," static/images/o3.png",6703
"2816",10,11,1477924927526,"3"," static/images/o4.png"," static/images/o4.png"," static/images/o4.png"," ApplytoSelfSame"," static/images/o2.png"," static/images/o2.png"," c c"," c"," static/images/o2.png",4944
"2817",10,12,1477924932459,"3"," static/images/o4.png"," static/images/o4.png"," static/images/o4.png"," ApplytoSelfSame"," static/images/o4.png"," static/images/o3.png"," a b"," a"," static/images/o4.png",4094
"2818",10,13,1477924936900,"3"," static/images/o4.png"," static/images/o4.png"," static/images/o4.png"," ApplytoSelfSame"," static/images/o3.png"," static/images/o2.png"," b c"," b"," static/images/o3.png",3543
"2819",10,14,1477924940019,"3"," static/images/o4.png"," static/images/o4.png"," static/images/o4.png"," ApplytoSelfSame"," static/images/o4.png"," static/images/o4.png"," a a"," a"," static/images/o4.png",2461
"2820",10,15,1477924943525,"3"," static/images/o4.png"," static/images/o4.png"," static/images/o4.png"," ApplytoSelfSame"," static/images/o3.png"," static/images/o3.png"," b b"," b"," static/images/o3.png",2457
"2821",10,16,1477924946387,"3"," static/images/o4.png"," static/images/o4.png"," static/images/o4.png"," ApplytoSelfSame"," static/images/o4.png"," static/images/o2.png"," a c"," a"," static/images/o4.png",2288
"2829",187,8,1477924934286,"2"," static/images/o5.png"," static/images/o2.png"," static/images/o5.png"," ReturnApply"," static/images/o3.png"," static/images/o4.png"," c d"," a"," static/images/o5.png",6575
"2830",187,9,1477924947438,"2"," static/images/o5.png"," static/images/o2.png"," static/images/o5.png"," ReturnApply"," static/images/o4.png"," static/images/o2.png"," d b"," a"," static/images/o5.png",12456
"2831",187,10,1477924953470,"2"," static/images/o5.png"," static/images/o2.png"," static/images/o5.png"," ReturnApply"," static/images/o3.png"," static/images/o3.png"," c c"," a"," static/images/o5.png",4360
"2832",187,11,1477924958551,"2"," static/images/o5.png"," static/images/o2.png"," static/images/o5.png"," ReturnApply"," static/images/o5.png"," static/images/o5.png"," a a"," a"," static/images/o5.png",4432
"2833",187,12,1477924964350,"2"," static/images/o5.png"," static/images/o2.png"," static/images/o5.png"," ReturnApply"," static/images/o3.png"," static/images/o5.png"," c a"," c"," static/images/o3.png",5192
"2834",187,13,1477924971990,"2"," static/images/o5.png"," static/images/o2.png"," static/images/o5.png"," ReturnApply"," static/images/o5.png"," static/images/o4.png"," a d"," b"," static/images/o2.png",7024
"2835",187,14,1477924979527,"2"," static/images/o5.png"," static/images/o2.png"," static/images/o5.png"," ReturnApply"," static/images/o4.png"," static/images/o3.png"," d c"," b"," static/images/o2.png",6953
"2836",187,15,1477924984471,"2"," static/images/o5.png"," static/images/o2.png"," static/images/o5.png"," ReturnApply"," static/images/o5.png"," static/images/o3.png"," a c"," b"," static/images/o2.png",4392
"2837",187,16,1477924987495,"2"," static/images/o5.png"," static/images/o2.png"," static/images/o5.png"," ReturnApply"," static/images/o2.png"," static/images/o2.png"," b b"," b"," static/images/o2.png",2384
"2838",187,17,1477924991815,"2"," static/images/o5.png"," static/images/o2.png"," static/images/o5.png"," ReturnApply"," static/images/o4.png"," static/images/o5.png"," d a"," c"," static/images/o3.png",3799
"2839",187,18,1477924995159,"2"," static/images/o5.png"," static/images/o2.png"," static/images/o5.png"," ReturnApply"," static/images/o2.png"," static/images/o3.png"," b c"," d"," static/images/o4.png",2648
"2840",187,19,1477924999735,"2"," static/images/o5.png"," static/images/o2.png"," static/images/o5.png"," ReturnApply"," static/images/o2.png"," static/images/o5.png"," b a"," d"," static/images/o4.png",3408
"2841",187,20,1477925003047,"2"," static/images/o5.png"," static/images/o2.png"," static/images/o5.png"," ReturnApply"," static/images/o5.png"," static/images/o2.png"," a b"," c"," static/images/o3.png",2256
"2842",187,21,1477925006487,"2"," static/images/o5.png"," static/images/o2.png"," static/images/o5.png"," ReturnApply"," static/images/o3.png"," static/images/o2.png"," c b"," d"," static/images/o4.png",2376
"2843",187,22,1477925010207,"2"," static/images/o5.png"," static/images/o2.png"," static/images/o5.png"," ReturnApply"," static/images/o2.png"," static/images/o4.png"," b d"," a"," static/images/o5.png",2984
"2851",219,8,1477924972234,"6"," static/images/o3.png"," static/images/o3.png"," static/images/o5.png"," Symmetry"," static/images/o4.png"," static/images/o5.png"," c b"," d"," static/images/o6.png",8127
"2852",219,9,1477924976025,"6"," static/images/o3.png"," static/images/o3.png"," static/images/o5.png"," Symmetry"," static/images/o3.png"," static/images/o3.png"," a a"," b"," static/images/o5.png",3152
"2853",219,10,1477924984289,"6"," static/images/o3.png"," static/images/o3.png"," static/images/o5.png"," Symmetry"," static/images/o4.png"," static/images/o3.png"," c a"," b"," static/images/o5.png",6216
"2854",219,11,1477924992993,"6"," static/images/o3.png"," static/images/o3.png"," static/images/o5.png"," Symmetry"," static/images/o3.png"," static/images/o6.png"," a d"," b"," static/images/o5.png",5079
"2855",219,12,1477924995601,"6"," static/images/o3.png"," static/images/o3.png"," static/images/o5.png"," Symmetry"," static/images/o6.png"," static/images/o5.png"," d b"," a"," static/images/o3.png",2119
"2856",219,13,1477925001369,"6"," static/images/o3.png"," static/images/o3.png"," static/images/o5.png"," Symmetry"," static/images/o5.png"," static/images/o3.png"," b a"," d"," static/images/o6.png",5093
"2857",219,14,1477925004321,"6"," static/images/o3.png"," static/images/o3.png"," static/images/o5.png"," Symmetry"," static/images/o6.png"," static/images/o4.png"," d c"," a"," static/images/o3.png",2368
"2858",219,15,1477925007089,"6"," static/images/o3.png"," static/images/o3.png"," static/images/o5.png"," Symmetry"," static/images/o4.png"," static/images/o6.png"," c d"," a"," static/images/o3.png",2286
"2859",219,16,1477925010964,"6"," static/images/o3.png"," static/images/o3.png"," static/images/o5.png"," Symmetry"," static/images/o5.png"," static/images/o5.png"," b b"," c"," static/images/o4.png",3265
"2860",219,17,1477925014019,"6"," static/images/o3.png"," static/images/o3.png"," static/images/o5.png"," Symmetry"," static/images/o5.png"," static/images/o6.png"," b d"," a"," static/images/o3.png",2512
"2861",219,18,1477925018153,"6"," static/images/o3.png"," static/images/o3.png"," static/images/o5.png"," Symmetry"," static/images/o5.png"," static/images/o4.png"," b c"," a"," static/images/o3.png",3622
"2862",219,19,1477925022690,"6"," static/images/o3.png"," static/images/o3.png"," static/images/o5.png"," Symmetry"," static/images/o4.png"," static/images/o4.png"," c c"," b"," static/images/o5.png",3937
"2863",219,20,1477925025353,"6"," static/images/o3.png"," static/images/o3.png"," static/images/o5.png"," Symmetry"," static/images/o3.png"," static/images/o4.png"," a c"," d"," static/images/o6.png",2062
"2864",219,21,1477925030489,"6"," static/images/o3.png"," static/images/o3.png"," static/images/o5.png"," Symmetry"," static/images/o6.png"," static/images/o3.png"," d a"," c"," static/images/o4.png",4576
"2865",219,22,1477925035746,"6"," static/images/o3.png"," static/images/o3.png"," static/images/o5.png"," Symmetry"," static/images/o3.png"," static/images/o5.png"," a b"," d"," static/images/o6.png",4713
"2873",252,8,1477925110258,"5"," static/images/o6.png"," static/images/o6.png"," static/images/o4.png"," Constant"," static/images/o2.png"," static/images/o2.png"," c c"," d"," static/images/o3.png",21037
"2874",252,9,1477925126056,"5"," static/images/o6.png"," static/images/o6.png"," static/images/o4.png"," Constant"," static/images/o2.png"," static/images/o6.png"," c a"," b"," static/images/o4.png",13800
"2875",252,10,1477925139490,"5"," static/images/o6.png"," static/images/o6.png"," static/images/o4.png"," Constant"," static/images/o6.png"," static/images/o4.png"," a b"," c"," static/images/o2.png",11658
"2876",252,11,1477925146492,"5"," static/images/o6.png"," static/images/o6.png"," static/images/o4.png"," Constant"," static/images/o6.png"," static/images/o2.png"," a c"," b"," static/images/o4.png",5689
"2877",252,12,1477925160941,"5"," static/images/o6.png"," static/images/o6.png"," static/images/o4.png"," Constant"," static/images/o6.png"," static/images/o3.png"," a d"," c"," static/images/o2.png",13327
"2878",252,13,1477925167264,"5"," static/images/o6.png"," static/images/o6.png"," static/images/o4.png"," Constant"," static/images/o6.png"," static/images/o6.png"," a a"," b"," static/images/o4.png",5180
"2879",252,14,1477925176358,"5"," static/images/o6.png"," static/images/o6.png"," static/images/o4.png"," Constant"," static/images/o3.png"," static/images/o2.png"," d c"," a"," static/images/o6.png",7829
"2880",252,15,1477925190308,"5"," static/images/o6.png"," static/images/o6.png"," static/images/o4.png"," Constant"," static/images/o4.png"," static/images/o4.png"," b b"," c"," static/images/o2.png",12210
"2881",252,16,1477925199016,"5"," static/images/o6.png"," static/images/o6.png"," static/images/o4.png"," Constant"," static/images/o4.png"," static/images/o3.png"," b d"," c"," static/images/o2.png",7381
"2882",252,17,1477925210628,"5"," static/images/o6.png"," static/images/o6.png"," static/images/o4.png"," Constant"," static/images/o2.png"," static/images/o3.png"," c d"," a"," static/images/o6.png",9628
"2883",252,18,1477925219624,"5"," static/images/o6.png"," static/images/o6.png"," static/images/o4.png"," Constant"," static/images/o2.png"," static/images/o4.png"," c b"," a"," static/images/o6.png",7998
"2884",252,19,1477925228022,"5"," static/images/o6.png"," static/images/o6.png"," static/images/o4.png"," Constant"," static/images/o4.png"," static/images/o2.png"," b c"," a"," static/images/o6.png",7437
"2885",252,20,1477925235422,"5"," static/images/o6.png"," static/images/o6.png"," static/images/o4.png"," Constant"," static/images/o4.png"," static/images/o6.png"," b a"," c"," static/images/o2.png",6052
"2886",252,21,1477925242532,"5"," static/images/o6.png"," static/images/o6.png"," static/images/o4.png"," Constant"," static/images/o3.png"," static/images/o4.png"," d b"," a"," static/images/o6.png",5722
"2887",252,22,1477925252088,"5"," static/images/o6.png"," static/images/o6.png"," static/images/o4.png"," Constant"," static/images/o3.png"," static/images/o6.png"," d a"," c"," static/images/o2.png",8487
"2895",52,8,1477925044141,"1"," static/images/o5.png"," static/images/o5.png"," static/images/o3.png"," ApplytoSelfNew"," static/images/o4.png"," static/images/o5.png"," c a"," d"," static/images/o2.png",16246
"2896",52,9,1477925052667,"1"," static/images/o5.png"," static/images/o5.png"," static/images/o3.png"," ApplytoSelfNew"," static/images/o5.png"," static/images/o4.png"," a c"," c"," static/images/o4.png",7634
"2897",52,10,1477925060937,"1"," static/images/o5.png"," static/images/o5.png"," static/images/o3.png"," ApplytoSelfNew"," static/images/o4.png"," static/images/o2.png"," c d"," d"," static/images/o2.png",7311
"2898",52,11,1477925067599,"1"," static/images/o5.png"," static/images/o5.png"," static/images/o3.png"," ApplytoSelfNew"," static/images/o3.png"," static/images/o3.png"," b b"," c"," static/images/o4.png",4088
"2899",52,12,1477925071279,"1"," static/images/o5.png"," static/images/o5.png"," static/images/o3.png"," ApplytoSelfNew"," static/images/o2.png"," static/images/o4.png"," d c"," a"," static/images/o5.png",3184
"2900",52,13,1477925075352,"1"," static/images/o5.png"," static/images/o5.png"," static/images/o3.png"," ApplytoSelfNew"," static/images/o4.png"," static/images/o3.png"," c b"," a"," static/images/o5.png",3579
"2901",52,14,1477925079425,"1"," static/images/o5.png"," static/images/o5.png"," static/images/o3.png"," ApplytoSelfNew"," static/images/o3.png"," static/images/o2.png"," b d"," a"," static/images/o5.png",3634
"2902",52,15,1477925083803,"1"," static/images/o5.png"," static/images/o5.png"," static/images/o3.png"," ApplytoSelfNew"," static/images/o3.png"," static/images/o4.png"," b c"," d"," static/images/o2.png",3870
"2903",52,16,1477925086611,"1"," static/images/o5.png"," static/images/o5.png"," static/images/o3.png"," ApplytoSelfNew"," static/images/o5.png"," static/images/o2.png"," a d"," b"," static/images/o3.png",2290
"2904",52,17,1477925093719,"1"," static/images/o5.png"," static/images/o5.png"," static/images/o3.png"," ApplytoSelfNew"," static/images/o5.png"," static/images/o3.png"," a b"," c"," static/images/o4.png",3569
"2905",52,18,1477925098788,"1"," static/images/o5.png"," static/images/o5.png"," static/images/o3.png"," ApplytoSelfNew"," static/images/o4.png"," static/images/o4.png"," c c"," a"," static/images/o5.png",4573
"2906",52,19,1477925102280,"1"," static/images/o5.png"," static/images/o5.png"," static/images/o3.png"," ApplytoSelfNew"," static/images/o2.png"," static/images/o5.png"," d a"," b"," static/images/o3.png",2967
"2907",52,20,1477925106862,"1"," static/images/o5.png"," static/images/o5.png"," static/images/o3.png"," ApplytoSelfNew"," static/images/o3.png"," static/images/o5.png"," b a"," d"," static/images/o2.png",4009
"2908",52,21,1477925110670,"1"," static/images/o5.png"," static/images/o5.png"," static/images/o3.png"," ApplytoSelfNew"," static/images/o2.png"," static/images/o3.png"," d b"," c"," static/images/o4.png",3184
"2909",52,22,1477925113374,"1"," static/images/o5.png"," static/images/o5.png"," static/images/o3.png"," ApplytoSelfNew"," static/images/o5.png"," static/images/o5.png"," a a"," b"," static/images/o3.png",2117
"2923",303,8,1477925153927,"0"," static/images/o5.png"," static/images/o3.png"," static/images/o4.png"," Successor"," static/images/o5.png"," static/images/o4.png"," a c"," d"," static/images/o1.png",5428
"2924",303,9,1477925159520,"0"," static/images/o5.png"," static/images/o3.png"," static/images/o4.png"," Successor"," static/images/o3.png"," static/images/o5.png"," b a"," c"," static/images/o4.png",3976
"2925",303,10,1477925163769,"0"," static/images/o5.png"," static/images/o3.png"," static/images/o4.png"," Successor"," static/images/o5.png"," static/images/o3.png"," a b"," c"," static/images/o4.png",3465
"2926",303,11,1477925172458,"0"," static/images/o5.png"," static/images/o3.png"," static/images/o4.png"," Successor"," static/images/o1.png"," static/images/o5.png"," d a"," e"," static/images/o2.png",7966
"2927",303,12,1477925176566,"0"," static/images/o5.png"," static/images/o3.png"," static/images/o4.png"," Successor"," static/images/o1.png"," static/images/o4.png"," d c"," e"," static/images/o2.png",3340
"2928",303,13,1477925181208,"0"," static/images/o5.png"," static/images/o3.png"," static/images/o4.png"," Successor"," static/images/o4.png"," static/images/o5.png"," c a"," d"," static/images/o1.png",3456
"2929",303,14,1477925184258,"0"," static/images/o5.png"," static/images/o3.png"," static/images/o4.png"," Successor"," static/images/o3.png"," static/images/o3.png"," b b"," b"," static/images/o3.png",2419
"2930",303,15,1477925188027,"0"," static/images/o5.png"," static/images/o3.png"," static/images/o4.png"," Successor"," static/images/o1.png"," static/images/o3.png"," d b"," e"," static/images/o2.png",3079
"2931",303,16,1477925201515,"0"," static/images/o5.png"," static/images/o3.png"," static/images/o4.png"," Successor"," static/images/o4.png"," static/images/o3.png"," c b"," a"," static/images/o5.png",3346
"2932",303,17,1477925204251,"0"," static/images/o5.png"," static/images/o3.png"," static/images/o4.png"," Successor"," static/images/o3.png"," static/images/o4.png"," b c"," a"," static/images/o5.png",1838
"2933",303,18,1477925210699,"0"," static/images/o5.png"," static/images/o3.png"," static/images/o4.png"," Successor"," static/images/o5.png"," static/images/o1.png"," a d"," c"," static/images/o4.png",4368
"2934",303,19,1477925213471,"0"," static/images/o5.png"," static/images/o3.png"," static/images/o4.png"," Successor"," static/images/o4.png"," static/images/o4.png"," c c"," c"," static/images/o4.png",1941
"2935",303,20,1477925220156,"0"," static/images/o5.png"," static/images/o3.png"," static/images/o4.png"," Successor"," static/images/o4.png"," static/images/o1.png"," c d"," b"," static/images/o3.png",6111
"2936",303,21,1477925229261,"0"," static/images/o5.png"," static/images/o3.png"," static/images/o4.png"," Successor"," static/images/o3.png"," static/images/o1.png"," b d"," e"," static/images/o2.png",6543
"2937",303,22,1477925232623,"0"," static/images/o5.png"," static/images/o3.png"," static/images/o4.png"," Successor"," static/images/o5.png"," static/images/o5.png"," a a"," a"," static/images/o5.png",1561
"2945",124,8,1477925232599,"4"," static/images/o4.png"," static/images/o1.png"," static/images/o1.png"," ReturnSame"," static/images/o5.png"," static/images/o6.png"," c d"," d"," static/images/o6.png",18161
"2946",124,9,1477925246329,"4"," static/images/o4.png"," static/images/o1.png"," static/images/o1.png"," ReturnSame"," static/images/o1.png"," static/images/o5.png"," b c"," c"," static/images/o5.png",13041
"2947",124,10,1477925250665,"4"," static/images/o4.png"," static/images/o1.png"," static/images/o1.png"," ReturnSame"," static/images/o6.png"," static/images/o1.png"," d b"," b"," static/images/o1.png",3448
"2948",124,11,1477925256652,"4"," static/images/o4.png"," static/images/o1.png"," static/images/o1.png"," ReturnSame"," static/images/o5.png"," static/images/o1.png"," c b"," b"," static/images/o1.png",5273
"2949",124,12,1477925260570,"4"," static/images/o4.png"," static/images/o1.png"," static/images/o1.png"," ReturnSame"," static/images/o4.png"," static/images/o6.png"," a d"," d"," static/images/o6.png",2763
"2950",124,13,1477925263821,"4"," static/images/o4.png"," static/images/o1.png"," static/images/o1.png"," ReturnSame"," static/images/o1.png"," static/images/o6.png"," b d"," d"," static/images/o6.png",2570
"2951",124,14,1477925268838,"4"," static/images/o4.png"," static/images/o1.png"," static/images/o1.png"," ReturnSame"," static/images/o6.png"," static/images/o5.png"," d c"," c"," static/images/o5.png",4526
"2952",124,15,1477925271518,"4"," static/images/o4.png"," static/images/o1.png"," static/images/o1.png"," ReturnSame"," static/images/o6.png"," static/images/o4.png"," d a"," a"," static/images/o4.png",2246
"2953",124,16,1477925275770,"4"," static/images/o4.png"," static/images/o1.png"," static/images/o1.png"," ReturnSame"," static/images/o4.png"," static/images/o1.png"," a b"," b"," static/images/o1.png",3067
"2954",124,17,1477925280812,"4"," static/images/o4.png"," static/images/o1.png"," static/images/o1.png"," ReturnSame"," static/images/o4.png"," static/images/o4.png"," a a"," a"," static/images/o4.png",2780
"2955",124,18,1477925283229,"4"," static/images/o4.png"," static/images/o1.png"," static/images/o1.png"," ReturnSame"," static/images/o1.png"," static/images/o4.png"," b a"," a"," static/images/o4.png",1900
"2956",124,19,1477925286511,"4"," static/images/o4.png"," static/images/o1.png"," static/images/o1.png"," ReturnSame"," static/images/o5.png"," static/images/o4.png"," c a"," a"," static/images/o4.png",2486
"2957",124,20,1477925288495,"4"," static/images/o4.png"," static/images/o1.png"," static/images/o1.png"," ReturnSame"," static/images/o4.png"," static/images/o5.png"," a c"," c"," static/images/o5.png",1548
"2958",124,21,1477925290384,"4"," static/images/o4.png"," static/images/o1.png"," static/images/o1.png"," ReturnSame"," static/images/o5.png"," static/images/o5.png"," c c"," c"," static/images/o5.png",1434
"2959",124,22,1477925292465,"4"," static/images/o4.png"," static/images/o1.png"," static/images/o1.png"," ReturnSame"," static/images/o1.png"," static/images/o1.png"," b b"," b"," static/images/o1.png",1650
"2967",161,8,1477925214162,"3"," static/images/o5.png"," static/images/o5.png"," static/images/o5.png"," ApplytoSelfSame"," static/images/o5.png"," static/images/o5.png"," a a"," a"," static/images/o5.png",5928
"2968",161,9,1477925221636,"3"," static/images/o5.png"," static/images/o5.png"," static/images/o5.png"," ApplytoSelfSame"," static/images/o5.png"," static/images/o6.png"," a c"," b"," static/images/o4.png",5849
"2969",161,10,1477925226201,"3"," static/images/o5.png"," static/images/o5.png"," static/images/o5.png"," ApplytoSelfSame"," static/images/o4.png"," static/images/o6.png"," b c"," a"," static/images/o5.png",3052
"2970",161,11,1477925230948,"3"," static/images/o5.png"," static/images/o5.png"," static/images/o5.png"," ApplytoSelfSame"," static/images/o6.png"," static/images/o6.png"," c c"," c"," static/images/o6.png",3039
"2971",161,12,1477925235090,"3"," static/images/o5.png"," static/images/o5.png"," static/images/o5.png"," ApplytoSelfSame"," static/images/o6.png"," static/images/o4.png"," c b"," a"," static/images/o5.png",2779
"2972",161,13,1477925238774,"3"," static/images/o5.png"," static/images/o5.png"," static/images/o5.png"," ApplytoSelfSame"," static/images/o4.png"," static/images/o4.png"," b b"," b"," static/images/o4.png",2614
"2973",161,14,1477925248511,"3"," static/images/o5.png"," static/images/o5.png"," static/images/o5.png"," ApplytoSelfSame"," static/images/o6.png"," static/images/o5.png"," c a"," b"," static/images/o4.png",5569
"2974",161,15,1477925251612,"3"," static/images/o5.png"," static/images/o5.png"," static/images/o5.png"," ApplytoSelfSame"," static/images/o5.png"," static/images/o4.png"," a b"," c"," static/images/o6.png",2069
"2975",161,16,1477925255760,"3"," static/images/o5.png"," static/images/o5.png"," static/images/o5.png"," ApplytoSelfSame"," static/images/o4.png"," static/images/o5.png"," b a"," c"," static/images/o6.png",3182
"2983",261,8,1477925210836,"7"," static/images/o5.png"," static/images/o2.png"," static/images/o1.png"," Not"," static/images/o5.png"," static/images/o5.png"," a a"," a"," static/images/o5.png",9767
"2984",261,9,1477925237700,"7"," static/images/o5.png"," static/images/o2.png"," static/images/o1.png"," Not"," static/images/o2.png"," static/images/o3.png"," b d"," a"," static/images/o5.png",25441
"2985",261,10,1477925257343,"7"," static/images/o5.png"," static/images/o2.png"," static/images/o1.png"," Not"," static/images/o1.png"," static/images/o2.png"," c b"," d"," static/images/o3.png",16715
"2986",261,11,1477925268722,"7"," static/images/o5.png"," static/images/o2.png"," static/images/o1.png"," Not"," static/images/o3.png"," static/images/o2.png"," d b"," a"," static/images/o5.png",10619
"2987",261,12,1477925278423,"7"," static/images/o5.png"," static/images/o2.png"," static/images/o1.png"," Not"," static/images/o2.png"," static/images/o5.png"," b a"," d"," static/images/o3.png",8992
"2988",261,13,1477925287175,"7"," static/images/o5.png"," static/images/o2.png"," static/images/o1.png"," Not"," static/images/o3.png"," static/images/o5.png"," d a"," b"," static/images/o2.png",7568
"2989",261,14,1477925293234,"7"," static/images/o5.png"," static/images/o2.png"," static/images/o1.png"," Not"," static/images/o2.png"," static/images/o1.png"," b c"," a"," static/images/o5.png",4617
"2990",261,15,1477925297312,"7"," static/images/o5.png"," static/images/o2.png"," static/images/o1.png"," Not"," static/images/o1.png"," static/images/o5.png"," c a"," d"," static/images/o3.png",3390
"2991",261,16,1477925305407,"7"," static/images/o5.png"," static/images/o2.png"," static/images/o1.png"," Not"," static/images/o3.png"," static/images/o1.png"," d c"," a"," static/images/o5.png",7392
"2992",261,17,1477925308303,"7"," static/images/o5.png"," static/images/o2.png"," static/images/o1.png"," Not"," static/images/o2.png"," static/images/o2.png"," b b"," b"," static/images/o2.png",2223
"2993",261,18,1477925319491,"7"," static/images/o5.png"," static/images/o2.png"," static/images/o1.png"," Not"," static/images/o5.png"," static/images/o3.png"," a d"," b"," static/images/o2.png",10525
"2994",261,19,1477925330747,"7"," static/images/o5.png"," static/images/o2.png"," static/images/o1.png"," Not"," static/images/o1.png"," static/images/o3.png"," c d"," a"," static/images/o5.png",10280
"2995",261,20,1477925341227,"7"," static/images/o5.png"," static/images/o2.png"," static/images/o1.png"," Not"," static/images/o5.png"," static/images/o1.png"," a c"," b"," static/images/o2.png",7952
"2996",261,21,1477925345931,"7"," static/images/o5.png"," static/images/o2.png"," static/images/o1.png"," Not"," static/images/o5.png"," static/images/o2.png"," a b"," c"," static/images/o1.png",2999
"2997",261,22,1477925350499,"7"," static/images/o5.png"," static/images/o2.png"," static/images/o1.png"," Not"," static/images/o1.png"," static/images/o1.png"," c c"," c"," static/images/o1.png",2440
"3005",56,8,1477925321276,"2"," static/images/o5.png"," static/images/o6.png"," static/images/o5.png"," ReturnApply"," static/images/o6.png"," static/images/o1.png"," b c"," a"," static/images/o5.png",6960
"3006",56,9,1477925326979,"2"," static/images/o5.png"," static/images/o6.png"," static/images/o5.png"," ReturnApply"," static/images/o3.png"," static/images/o5.png"," d a"," a"," static/images/o5.png",4583
"3007",56,10,1477925330980,"2"," static/images/o5.png"," static/images/o6.png"," static/images/o5.png"," ReturnApply"," static/images/o6.png"," static/images/o5.png"," b a"," a"," static/images/o5.png",2824
"3008",56,11,1477925349187,"2"," static/images/o5.png"," static/images/o6.png"," static/images/o5.png"," ReturnApply"," static/images/o6.png"," static/images/o6.png"," b b"," b"," static/images/o6.png",17127
"3009",56,12,1477925351963,"2"," static/images/o5.png"," static/images/o6.png"," static/images/o5.png"," ReturnApply"," static/images/o5.png"," static/images/o6.png"," a b"," a"," static/images/o5.png",1848
"3010",56,13,1477925363348,"2"," static/images/o5.png"," static/images/o6.png"," static/images/o5.png"," ReturnApply"," static/images/o5.png"," static/images/o1.png"," a c"," a"," static/images/o5.png",10694
"3011",56,14,1477925369082,"2"," static/images/o5.png"," static/images/o6.png"," static/images/o5.png"," ReturnApply"," static/images/o1.png"," static/images/o6.png"," c b"," a"," static/images/o5.png",4925
"3012",56,15,1477925374995,"2"," static/images/o5.png"," static/images/o6.png"," static/images/o5.png"," ReturnApply"," static/images/o1.png"," static/images/o1.png"," c c"," c"," static/images/o1.png",2537
"3013",56,16,1477925377349,"2"," static/images/o5.png"," static/images/o6.png"," static/images/o5.png"," ReturnApply"," static/images/o5.png"," static/images/o5.png"," a a"," a"," static/images/o5.png",1447
"3014",56,17,1477925379864,"2"," static/images/o5.png"," static/images/o6.png"," static/images/o5.png"," ReturnApply"," static/images/o1.png"," static/images/o5.png"," c a"," a"," static/images/o5.png",1979
"3015",56,18,1477925403644,"2"," static/images/o5.png"," static/images/o6.png"," static/images/o5.png"," ReturnApply"," static/images/o3.png"," static/images/o1.png"," d c"," a"," static/images/o5.png",22897
"3016",56,19,1477925418491,"2"," static/images/o5.png"," static/images/o6.png"," static/images/o5.png"," ReturnApply"," static/images/o6.png"," static/images/o3.png"," b d"," a"," static/images/o5.png",14229
"3017",56,20,1477925420751,"2"," static/images/o5.png"," static/images/o6.png"," static/images/o5.png"," ReturnApply"," static/images/o5.png"," static/images/o3.png"," a d"," a"," static/images/o5.png",1691
"3018",56,21,1477925425813,"2"," static/images/o5.png"," static/images/o6.png"," static/images/o5.png"," ReturnApply"," static/images/o1.png"," static/images/o3.png"," c d"," a"," static/images/o5.png",1836
"3019",56,22,1477925430015,"2"," static/images/o5.png"," static/images/o6.png"," static/images/o5.png"," ReturnApply"," static/images/o3.png"," static/images/o6.png"," d b"," a"," static/images/o5.png",2232
"3027",21,8,1477925261415,"0"," static/images/o5.png"," static/images/o2.png"," static/images/o6.png"," Successor"," static/images/o6.png"," static/images/o5.png"," c a"," e"," static/images/o1.png",10170
"3028",21,9,1477925270602,"0"," static/images/o5.png"," static/images/o2.png"," static/images/o6.png"," Successor"," static/images/o3.png"," static/images/o6.png"," d c"," d"," static/images/o3.png",7967
"3029",21,10,1477925290395,"0"," static/images/o5.png"," static/images/o2.png"," static/images/o6.png"," Successor"," static/images/o6.png"," static/images/o3.png"," c d"," e"," static/images/o1.png",3577
"3030",21,11,1477925294595,"0"," static/images/o5.png"," static/images/o2.png"," static/images/o6.png"," Successor"," static/images/o5.png"," static/images/o5.png"," a a"," a"," static/images/o5.png",2112
"3031",21,12,1477925300466,"0"," static/images/o5.png"," static/images/o2.png"," static/images/o6.png"," Successor"," static/images/o5.png"," static/images/o3.png"," a d"," e"," static/images/o1.png",3883
"3032",21,13,1477925303299,"0"," static/images/o5.png"," static/images/o2.png"," static/images/o6.png"," Successor"," static/images/o2.png"," static/images/o2.png"," b b"," b"," static/images/o2.png",1633
"3033",21,14,1477925310186,"0"," static/images/o5.png"," static/images/o2.png"," static/images/o6.png"," Successor"," static/images/o5.png"," static/images/o6.png"," a c"," d"," static/images/o3.png",5919
"3034",21,15,1477925316994,"0"," static/images/o5.png"," static/images/o2.png"," static/images/o6.png"," Successor"," static/images/o2.png"," static/images/o6.png"," b c"," c"," static/images/o6.png",5563
"3035",21,16,1477925321707,"0"," static/images/o5.png"," static/images/o2.png"," static/images/o6.png"," Successor"," static/images/o3.png"," static/images/o2.png"," d b"," d"," static/images/o3.png",3294
"3036",21,17,1477925326876,"0"," static/images/o5.png"," static/images/o2.png"," static/images/o6.png"," Successor"," static/images/o6.png"," static/images/o2.png"," c b"," d"," static/images/o3.png",3611
"3037",21,18,1477925332585,"0"," static/images/o5.png"," static/images/o2.png"," static/images/o6.png"," Successor"," static/images/o2.png"," static/images/o5.png"," b a"," c"," static/images/o6.png",3548
"3038",21,19,1477925340777,"0"," static/images/o5.png"," static/images/o2.png"," static/images/o6.png"," Successor"," static/images/o3.png"," static/images/o5.png"," d a"," d"," static/images/o3.png",6815
"3039",21,20,1477925343604,"0"," static/images/o5.png"," static/images/o2.png"," static/images/o6.png"," Successor"," static/images/o6.png"," static/images/o6.png"," c c"," c"," static/images/o6.png",1898
"3040",21,21,1477925347642,"0"," static/images/o5.png"," static/images/o2.png"," static/images/o6.png"," Successor"," static/images/o2.png"," static/images/o3.png"," b d"," e"," static/images/o1.png",2969
"3041",21,22,1477925351210,"0"," static/images/o5.png"," static/images/o2.png"," static/images/o6.png"," Successor"," static/images/o5.png"," static/images/o2.png"," a b"," c"," static/images/o6.png",2721
"3049",128,8,1477925285935,"1"," static/images/o1.png"," static/images/o1.png"," static/images/o4.png"," ApplytoSelfNew"," static/images/o4.png"," static/images/o1.png"," b a"," c"," static/images/o2.png",16047
"3050",128,9,1477925294967,"1"," static/images/o1.png"," static/images/o1.png"," static/images/o4.png"," ApplytoSelfNew"," static/images/o2.png"," static/images/o1.png"," c a"," d"," static/images/o6.png",7222
"3051",128,10,1477925308583,"1"," static/images/o1.png"," static/images/o1.png"," static/images/o4.png"," ApplytoSelfNew"," static/images/o6.png"," static/images/o1.png"," d a"," d"," static/images/o6.png",12789
"3052",128,11,1477925313944,"1"," static/images/o1.png"," static/images/o1.png"," static/images/o4.png"," ApplytoSelfNew"," static/images/o4.png"," static/images/o4.png"," b b"," c"," static/images/o2.png",4656
"3053",128,12,1477925320233,"1"," static/images/o1.png"," static/images/o1.png"," static/images/o4.png"," ApplytoSelfNew"," static/images/o1.png"," static/images/o4.png"," a b"," b"," static/images/o4.png",5368
"3054",128,13,1477925327568,"1"," static/images/o1.png"," static/images/o1.png"," static/images/o4.png"," ApplytoSelfNew"," static/images/o4.png"," static/images/o2.png"," b c"," d"," static/images/o6.png",6649
"3055",128,14,1477925330904,"1"," static/images/o1.png"," static/images/o1.png"," static/images/o4.png"," ApplytoSelfNew"," static/images/o6.png"," static/images/o2.png"," d c"," d"," static/images/o6.png",2567
"3056",128,15,1477925334432,"1"," static/images/o1.png"," static/images/o1.png"," static/images/o4.png"," ApplytoSelfNew"," static/images/o2.png"," static/images/o2.png"," c c"," d"," static/images/o6.png",3008
"3057",128,16,1477925337627,"1"," static/images/o1.png"," static/images/o1.png"," static/images/o4.png"," ApplytoSelfNew"," static/images/o4.png"," static/images/o6.png"," b d"," d"," static/images/o6.png",2584
"3058",128,17,1477925340159,"1"," static/images/o1.png"," static/images/o1.png"," static/images/o4.png"," ApplytoSelfNew"," static/images/o2.png"," static/images/o6.png"," c d"," d"," static/images/o6.png",2058
"3059",128,18,1477925343944,"1"," static/images/o1.png"," static/images/o1.png"," static/images/o4.png"," ApplytoSelfNew"," static/images/o6.png"," static/images/o4.png"," d b"," d"," static/images/o6.png",2776
"3060",128,19,1477925347192,"1"," static/images/o1.png"," static/images/o1.png"," static/images/o4.png"," ApplytoSelfNew"," static/images/o1.png"," static/images/o6.png"," a d"," d"," static/images/o6.png",2632
"3061",128,20,1477925352718,"1"," static/images/o1.png"," static/images/o1.png"," static/images/o4.png"," ApplytoSelfNew"," static/images/o2.png"," static/images/o4.png"," c b"," d"," static/images/o6.png",3796
"3062",128,21,1477925355503,"1"," static/images/o1.png"," static/images/o1.png"," static/images/o4.png"," ApplytoSelfNew"," static/images/o1.png"," static/images/o1.png"," a a"," b"," static/images/o4.png",1944
"3063",128,22,1477925361297,"1"," static/images/o1.png"," static/images/o1.png"," static/images/o4.png"," ApplytoSelfNew"," static/images/o1.png"," static/images/o2.png"," a c"," c"," static/images/o2.png",5090
"3071",239,8,1477925272581,"4"," static/images/o2.png"," static/images/o3.png"," static/images/o3.png"," ReturnSame"," static/images/o3.png"," static/images/o6.png"," b c"," c"," static/images/o6.png",10351
"3072",239,9,1477925282488,"4"," static/images/o2.png"," static/images/o3.png"," static/images/o3.png"," ReturnSame"," static/images/o6.png"," static/images/o1.png"," c d"," c"," static/images/o6.png",8715
"3073",239,10,1477925291830,"4"," static/images/o2.png"," static/images/o3.png"," static/images/o3.png"," ReturnSame"," static/images/o2.png"," static/images/o3.png"," a b"," b"," static/images/o3.png",4655
"3074",239,11,1477925295602,"4"," static/images/o2.png"," static/images/o3.png"," static/images/o3.png"," ReturnSame"," static/images/o3.png"," static/images/o1.png"," b d"," d"," static/images/o1.png",3187
"3075",239,12,1477925301151,"4"," static/images/o2.png"," static/images/o3.png"," static/images/o3.png"," ReturnSame"," static/images/o1.png"," static/images/o2.png"," d a"," d"," static/images/o1.png",4985
"3076",239,13,1477925304599,"4"," static/images/o2.png"," static/images/o3.png"," static/images/o3.png"," ReturnSame"," static/images/o1.png"," static/images/o6.png"," d c"," d"," static/images/o1.png",2792
"3077",239,14,1477925307478,"4"," static/images/o2.png"," static/images/o3.png"," static/images/o3.png"," ReturnSame"," static/images/o2.png"," static/images/o6.png"," a c"," c"," static/images/o6.png",2239
"3078",239,15,1477925311407,"4"," static/images/o2.png"," static/images/o3.png"," static/images/o3.png"," ReturnSame"," static/images/o1.png"," static/images/o3.png"," d b"," d"," static/images/o1.png",3388
"3079",239,16,1477925314479,"4"," static/images/o2.png"," static/images/o3.png"," static/images/o3.png"," ReturnSame"," static/images/o3.png"," static/images/o3.png"," b b"," b"," static/images/o3.png",2496
"3080",239,17,1477925317055,"4"," static/images/o2.png"," static/images/o3.png"," static/images/o3.png"," ReturnSame"," static/images/o2.png"," static/images/o1.png"," a d"," d"," static/images/o1.png",2127
"3081",239,18,1477925320671,"4"," static/images/o2.png"," static/images/o3.png"," static/images/o3.png"," ReturnSame"," static/images/o2.png"," static/images/o2.png"," a a"," a"," static/images/o2.png",3120
"3082",239,19,1477925324441,"4"," static/images/o2.png"," static/images/o3.png"," static/images/o3.png"," ReturnSame"," static/images/o6.png"," static/images/o3.png"," c b"," c"," static/images/o6.png",3225
"3083",239,20,1477925327119,"4"," static/images/o2.png"," static/images/o3.png"," static/images/o3.png"," ReturnSame"," static/images/o6.png"," static/images/o2.png"," c a"," c"," static/images/o6.png",2128
"3084",239,21,1477925330287,"4"," static/images/o2.png"," static/images/o3.png"," static/images/o3.png"," ReturnSame"," static/images/o3.png"," static/images/o2.png"," b a"," b"," static/images/o3.png",2519
"3085",239,22,1477925333254,"4"," static/images/o2.png"," static/images/o3.png"," static/images/o3.png"," ReturnSame"," static/images/o6.png"," static/images/o6.png"," c c"," c"," static/images/o6.png",2424
"3093",83,8,1477925351551,"3"," static/images/o2.png"," static/images/o2.png"," static/images/o2.png"," ApplytoSelfSame"," static/images/o2.png"," static/images/o5.png"," a b"," c"," static/images/o4.png",17101
"3094",83,9,1477925359961,"3"," static/images/o2.png"," static/images/o2.png"," static/images/o2.png"," ApplytoSelfSame"," static/images/o2.png"," static/images/o2.png"," a a"," a"," static/images/o2.png",5247
"3095",83,10,1477925369596,"3"," static/images/o2.png"," static/images/o2.png"," static/images/o2.png"," ApplytoSelfSame"," static/images/o5.png"," static/images/o4.png"," b c"," c"," static/images/o4.png",6726
"3096",83,11,1477925376607,"3"," static/images/o2.png"," static/images/o2.png"," static/images/o2.png"," ApplytoSelfSame"," static/images/o5.png"," static/images/o2.png"," b a"," a"," static/images/o2.png",4991
"3097",83,12,1477925391028,"3"," static/images/o2.png"," static/images/o2.png"," static/images/o2.png"," ApplytoSelfSame"," static/images/o4.png"," static/images/o2.png"," c a"," b"," static/images/o5.png",13345
"3098",83,13,1477925395208,"3"," static/images/o2.png"," static/images/o2.png"," static/images/o2.png"," ApplytoSelfSame"," static/images/o5.png"," static/images/o5.png"," b b"," b"," static/images/o5.png",2395
"3099",83,14,1477925400659,"3"," static/images/o2.png"," static/images/o2.png"," static/images/o2.png"," ApplytoSelfSame"," static/images/o4.png"," static/images/o5.png"," c b"," a"," static/images/o2.png",4218
"3100",83,15,1477925404229,"3"," static/images/o2.png"," static/images/o2.png"," static/images/o2.png"," ApplytoSelfSame"," static/images/o4.png"," static/images/o4.png"," c c"," c"," static/images/o4.png",2882
"3101",83,16,1477925410791,"3"," static/images/o2.png"," static/images/o2.png"," static/images/o2.png"," ApplytoSelfSame"," static/images/o2.png"," static/images/o4.png"," a c"," b"," static/images/o5.png",5390
"3109",11,8,1477925478288,"5"," static/images/o4.png"," static/images/o4.png"," static/images/o5.png"," Constant"," static/images/o1.png"," static/images/o5.png"," c b"," a"," static/images/o4.png",25887
"3110",11,9,1477925488200,"5"," static/images/o4.png"," static/images/o4.png"," static/images/o5.png"," Constant"," static/images/o5.png"," static/images/o1.png"," b c"," a"," static/images/o4.png",8700
"3111",11,10,1477925562797,"5"," static/images/o4.png"," static/images/o4.png"," static/images/o5.png"," Constant"," static/images/o4.png"," static/images/o5.png"," a b"," c"," static/images/o1.png",72811
"3118",6,8,1477925424773,"3"," static/images/o1.png"," static/images/o1.png"," static/images/o1.png"," ApplytoSelfSame"," static/images/o1.png"," static/images/o2.png"," a b"," c"," static/images/o5.png",16814
"3119",6,9,1477925439590,"3"," static/images/o1.png"," static/images/o1.png"," static/images/o1.png"," ApplytoSelfSame"," static/images/o2.png"," static/images/o2.png"," b b"," c"," static/images/o5.png",11975
"3120",6,10,1477925446092,"3"," static/images/o1.png"," static/images/o1.png"," static/images/o1.png"," ApplytoSelfSame"," static/images/o2.png"," static/images/o1.png"," b a"," c"," static/images/o5.png",5430
"3121",6,11,1477925450452,"3"," static/images/o1.png"," static/images/o1.png"," static/images/o1.png"," ApplytoSelfSame"," static/images/o2.png"," static/images/o5.png"," b c"," a"," static/images/o1.png",3135
"3122",6,12,1477925455157,"3"," static/images/o1.png"," static/images/o1.png"," static/images/o1.png"," ApplytoSelfSame"," static/images/o5.png"," static/images/o1.png"," c a"," b"," static/images/o2.png",2888
"3123",6,13,1477925461389,"3"," static/images/o1.png"," static/images/o1.png"," static/images/o1.png"," ApplytoSelfSame"," static/images/o1.png"," static/images/o1.png"," a a"," a"," static/images/o1.png",3657
"3124",6,14,1477925470845,"3"," static/images/o1.png"," static/images/o1.png"," static/images/o1.png"," ApplytoSelfSame"," static/images/o1.png"," static/images/o5.png"," a c"," b"," static/images/o2.png",8321
"3125",6,15,1477925475125,"3"," static/images/o1.png"," static/images/o1.png"," static/images/o1.png"," ApplytoSelfSame"," static/images/o5.png"," static/images/o5.png"," c c"," c"," static/images/o5.png",3399
"3126",6,16,1477925479125,"3"," static/images/o1.png"," static/images/o1.png"," static/images/o1.png"," ApplytoSelfSame"," static/images/o5.png"," static/images/o2.png"," c b"," a"," static/images/o1.png",3185
"3134",102,8,1477925582238,"4"," static/images/o2.png"," static/images/o1.png"," static/images/o1.png"," ReturnSame"," static/images/o1.png"," static/images/o6.png"," b c"," d"," static/images/o3.png",21317
"3135",102,9,1477925586565,"4"," static/images/o2.png"," static/images/o1.png"," static/images/o1.png"," ReturnSame"," static/images/o1.png"," static/images/o2.png"," b a"," b"," static/images/o1.png",3600
"3136",102,10,1477925588878,"4"," static/images/o2.png"," static/images/o1.png"," static/images/o1.png"," ReturnSame"," static/images/o1.png"," static/images/o3.png"," b d"," a"," static/images/o2.png",1728
"3137",102,11,1477925596165,"4"," static/images/o2.png"," static/images/o1.png"," static/images/o1.png"," ReturnSame"," static/images/o6.png"," static/images/o2.png"," c a"," c"," static/images/o6.png",6841
"3138",102,12,1477925598629,"4"," static/images/o2.png"," static/images/o1.png"," static/images/o1.png"," ReturnSame"," static/images/o1.png"," static/images/o1.png"," b b"," b"," static/images/o1.png",1751
"3139",102,13,1477925601869,"4"," static/images/o2.png"," static/images/o1.png"," static/images/o1.png"," ReturnSame"," static/images/o2.png"," static/images/o2.png"," a a"," a"," static/images/o2.png",2158
"3140",102,14,1477925605318,"4"," static/images/o2.png"," static/images/o1.png"," static/images/o1.png"," ReturnSame"," static/images/o3.png"," static/images/o1.png"," d b"," b"," static/images/o1.png",3056
"3141",102,15,1477925607413,"4"," static/images/o2.png"," static/images/o1.png"," static/images/o1.png"," ReturnSame"," static/images/o2.png"," static/images/o3.png"," a d"," a"," static/images/o2.png",1560
"3142",102,16,1477925609551,"4"," static/images/o2.png"," static/images/o1.png"," static/images/o1.png"," ReturnSame"," static/images/o3.png"," static/images/o6.png"," d c"," c"," static/images/o6.png",1715
"3143",102,17,1477925612644,"4"," static/images/o2.png"," static/images/o1.png"," static/images/o1.png"," ReturnSame"," static/images/o2.png"," static/images/o1.png"," a b"," b"," static/images/o1.png",2536
"3144",102,18,1477925617006,"4"," static/images/o2.png"," static/images/o1.png"," static/images/o1.png"," ReturnSame"," static/images/o6.png"," static/images/o3.png"," c d"," d"," static/images/o3.png",3937
"3145",102,19,1477925618829,"4"," static/images/o2.png"," static/images/o1.png"," static/images/o1.png"," ReturnSame"," static/images/o6.png"," static/images/o1.png"," c b"," c"," static/images/o6.png",1455
"3146",102,20,1477925621126,"4"," static/images/o2.png"," static/images/o1.png"," static/images/o1.png"," ReturnSame"," static/images/o2.png"," static/images/o6.png"," a c"," a"," static/images/o2.png",1662
"3147",102,21,1477925625061,"4"," static/images/o2.png"," static/images/o1.png"," static/images/o1.png"," ReturnSame"," static/images/o3.png"," static/images/o2.png"," d a"," d"," static/images/o3.png",3552
"3148",102,22,1477925627334,"4"," static/images/o2.png"," static/images/o1.png"," static/images/o1.png"," ReturnSame"," static/images/o6.png"," static/images/o6.png"," c c"," c"," static/images/o6.png",1978
"3156",43,8,1477925805848,"1"," static/images/o6.png"," static/images/o6.png"," static/images/o4.png"," ApplytoSelfNew"," static/images/o4.png"," static/images/o1.png"," b d"," a"," static/images/o6.png",6621
"3157",43,9,1477925812155,"1"," static/images/o6.png"," static/images/o6.png"," static/images/o4.png"," ApplytoSelfNew"," static/images/o2.png"," static/images/o2.png"," c c"," b"," static/images/o4.png",4035
"3158",43,10,1477925816272,"1"," static/images/o6.png"," static/images/o6.png"," static/images/o4.png"," ApplytoSelfNew"," static/images/o4.png"," static/images/o2.png"," b c"," d"," static/images/o1.png",3204
"3159",43,11,1477925822963,"1"," static/images/o6.png"," static/images/o6.png"," static/images/o4.png"," ApplytoSelfNew"," static/images/o2.png"," static/images/o4.png"," c b"," d"," static/images/o1.png",5813
"3160",43,12,1477925826989,"1"," static/images/o6.png"," static/images/o6.png"," static/images/o4.png"," ApplytoSelfNew"," static/images/o4.png"," static/images/o4.png"," b b"," c"," static/images/o2.png",3034
"3161",43,13,1477925836083,"1"," static/images/o6.png"," static/images/o6.png"," static/images/o4.png"," ApplytoSelfNew"," static/images/o6.png"," static/images/o4.png"," a b"," b"," static/images/o4.png",8174
"3162",43,14,1477925848493,"1"," static/images/o6.png"," static/images/o6.png"," static/images/o4.png"," ApplytoSelfNew"," static/images/o1.png"," static/images/o4.png"," d b"," a"," static/images/o6.png",5501
"3163",43,15,1477925852869,"1"," static/images/o6.png"," static/images/o6.png"," static/images/o4.png"," ApplytoSelfNew"," static/images/o6.png"," static/images/o6.png"," a a"," b"," static/images/o4.png",3600
"3164",43,16,1477925857837,"1"," static/images/o6.png"," static/images/o6.png"," static/images/o4.png"," ApplytoSelfNew"," static/images/o4.png"," static/images/o6.png"," b a"," d"," static/images/o1.png",4274
"3165",43,17,1477925866254,"1"," static/images/o6.png"," static/images/o6.png"," static/images/o4.png"," ApplytoSelfNew"," static/images/o1.png"," static/images/o2.png"," d c"," d"," static/images/o1.png",7647
"3166",43,18,1477925870688,"1"," static/images/o6.png"," static/images/o6.png"," static/images/o4.png"," ApplytoSelfNew"," static/images/o2.png"," static/images/o6.png"," c a"," b"," static/images/o4.png",3704
"3167",43,19,1477925874025,"1"," static/images/o6.png"," static/images/o6.png"," static/images/o4.png"," ApplytoSelfNew"," static/images/o6.png"," static/images/o2.png"," a c"," d"," static/images/o1.png",2512
"3168",43,20,1477925877841,"1"," static/images/o6.png"," static/images/o6.png"," static/images/o4.png"," ApplytoSelfNew"," static/images/o1.png"," static/images/o6.png"," d a"," d"," static/images/o1.png",3129
"3169",43,21,1477925882852,"1"," static/images/o6.png"," static/images/o6.png"," static/images/o4.png"," ApplytoSelfNew"," static/images/o2.png"," static/images/o1.png"," c d"," d"," static/images/o1.png",3304
"3170",43,22,1477925890453,"1"," static/images/o6.png"," static/images/o6.png"," static/images/o4.png"," ApplytoSelfNew"," static/images/o6.png"," static/images/o1.png"," a d"," d"," static/images/o1.png",6853
"3178",90,8,1477925880133,"7"," static/images/o6.png"," static/images/o4.png"," static/images/o2.png"," Not"," static/images/o2.png"," static/images/o6.png"," c a"," b"," static/images/o4.png",29912
"3179",90,9,1477925919915,"7"," static/images/o6.png"," static/images/o4.png"," static/images/o2.png"," Not"," static/images/o3.png"," static/images/o4.png"," d b"," a"," static/images/o6.png",38943
"3180",90,10,1477925932420,"7"," static/images/o6.png"," static/images/o4.png"," static/images/o2.png"," Not"," static/images/o6.png"," static/images/o2.png"," a c"," b"," static/images/o4.png",11465
"3181",90,11,1477925940667,"7"," static/images/o6.png"," static/images/o4.png"," static/images/o2.png"," Not"," static/images/o4.png"," static/images/o4.png"," b b"," d"," static/images/o3.png",7158
"3182",90,12,1477925954250,"7"," static/images/o6.png"," static/images/o4.png"," static/images/o2.png"," Not"," static/images/o3.png"," static/images/o2.png"," d c"," a"," static/images/o6.png",12463
"3183",90,13,1477925960788,"7"," static/images/o6.png"," static/images/o4.png"," static/images/o2.png"," Not"," static/images/o4.png"," static/images/o6.png"," b a"," c"," static/images/o2.png",5393
"3184",90,14,1477925966846,"7"," static/images/o6.png"," static/images/o4.png"," static/images/o2.png"," Not"," static/images/o2.png"," static/images/o4.png"," c b"," a"," static/images/o6.png",5497
"3185",90,15,1477925972835,"7"," static/images/o6.png"," static/images/o4.png"," static/images/o2.png"," Not"," static/images/o2.png"," static/images/o3.png"," c d"," a"," static/images/o6.png",4465
"3186",90,16,1477925979179,"7"," static/images/o6.png"," static/images/o4.png"," static/images/o2.png"," Not"," static/images/o6.png"," static/images/o3.png"," a d"," b"," static/images/o4.png",5470
"3187",90,17,1477925989227,"7"," static/images/o6.png"," static/images/o4.png"," static/images/o2.png"," Not"," static/images/o4.png"," static/images/o3.png"," b d"," c"," static/images/o2.png",9271
"3188",90,18,1477925996555,"7"," static/images/o6.png"," static/images/o4.png"," static/images/o2.png"," Not"," static/images/o3.png"," static/images/o6.png"," d a"," b"," static/images/o4.png",6445
"3189",90,19,1477926000563,"7"," static/images/o6.png"," static/images/o4.png"," static/images/o2.png"," Not"," static/images/o2.png"," static/images/o2.png"," c c"," d"," static/images/o3.png",3551
"3190",90,20,1477926004950,"7"," static/images/o6.png"," static/images/o4.png"," static/images/o2.png"," Not"," static/images/o6.png"," static/images/o4.png"," a b"," c"," static/images/o2.png",3770
"3191",90,21,1477926014810,"7"," static/images/o6.png"," static/images/o4.png"," static/images/o2.png"," Not"," static/images/o4.png"," static/images/o2.png"," b c"," a"," static/images/o6.png",7863
"3192",90,22,1477926022242,"7"," static/images/o6.png"," static/images/o4.png"," static/images/o2.png"," Not"," static/images/o6.png"," static/images/o6.png"," a a"," b"," static/images/o4.png",6596
"3200",236,8,1477926104795,"0"," static/images/o1.png"," static/images/o3.png"," static/images/o2.png"," Successor"," static/images/o3.png"," static/images/o4.png"," b d"," a"," static/images/o1.png",28296
"3201",236,9,1477926117615,"0"," static/images/o1.png"," static/images/o3.png"," static/images/o2.png"," Successor"," static/images/o1.png"," static/images/o4.png"," a d"," e"," static/images/o6.png",9655
"3202",236,10,1477926124194,"0"," static/images/o1.png"," static/images/o3.png"," static/images/o2.png"," Successor"," static/images/o1.png"," static/images/o3.png"," a b"," c"," static/images/o2.png",4748
"3203",236,11,1477926140333,"0"," static/images/o1.png"," static/images/o3.png"," static/images/o2.png"," Successor"," static/images/o2.png"," static/images/o4.png"," c d"," a"," static/images/o1.png",13855
"3204",236,12,1477926145862,"0"," static/images/o1.png"," static/images/o3.png"," static/images/o2.png"," Successor"," static/images/o1.png"," static/images/o1.png"," a a"," e"," static/images/o6.png",4144
"3205",236,13,1477926165463,"0"," static/images/o1.png"," static/images/o3.png"," static/images/o2.png"," Successor"," static/images/o4.png"," static/images/o1.png"," d a"," b"," static/images/o3.png",17908
"3206",236,14,1477926171387,"0"," static/images/o1.png"," static/images/o3.png"," static/images/o2.png"," Successor"," static/images/o2.png"," static/images/o1.png"," c a"," d"," static/images/o4.png",4772
"3207",236,15,1477926176978,"0"," static/images/o1.png"," static/images/o3.png"," static/images/o2.png"," Successor"," static/images/o3.png"," static/images/o3.png"," b b"," b"," static/images/o3.png",4556
"3208",236,16,1477926185441,"0"," static/images/o1.png"," static/images/o3.png"," static/images/o2.png"," Successor"," static/images/o3.png"," static/images/o2.png"," b c"," e"," static/images/o6.png",7550
"3209",236,17,1477926191036,"0"," static/images/o1.png"," static/images/o3.png"," static/images/o2.png"," Successor"," static/images/o1.png"," static/images/o2.png"," a c"," d"," static/images/o4.png",3515
"3210",236,18,1477926195722,"0"," static/images/o1.png"," static/images/o3.png"," static/images/o2.png"," Successor"," static/images/o3.png"," static/images/o1.png"," b a"," c"," static/images/o2.png",3079
"3211",236,19,1477926204337,"0"," static/images/o1.png"," static/images/o3.png"," static/images/o2.png"," Successor"," static/images/o4.png"," static/images/o2.png"," d c"," a"," static/images/o1.png",7302
"3212",236,20,1477926208723,"0"," static/images/o1.png"," static/images/o3.png"," static/images/o2.png"," Successor"," static/images/o4.png"," static/images/o3.png"," d b"," e"," static/images/o6.png",3231
"3213",236,21,1477926214650,"0"," static/images/o1.png"," static/images/o3.png"," static/images/o2.png"," Successor"," static/images/o2.png"," static/images/o3.png"," c b"," a"," static/images/o1.png",4882
"3214",236,22,1477926218785,"0"," static/images/o1.png"," static/images/o3.png"," static/images/o2.png"," Successor"," static/images/o2.png"," static/images/o2.png"," c c"," c"," static/images/o2.png",3396
"3222",174,8,1477926043834,"5"," static/images/o3.png"," static/images/o3.png"," static/images/o1.png"," Constant"," static/images/o1.png"," static/images/o1.png"," b b"," a"," static/images/o3.png",13177
"3223",174,9,1477926062029,"5"," static/images/o3.png"," static/images/o3.png"," static/images/o1.png"," Constant"," static/images/o4.png"," static/images/o5.png"," d c"," a"," static/images/o3.png",16661
"3224",174,10,1477926066090,"5"," static/images/o3.png"," static/images/o3.png"," static/images/o1.png"," Constant"," static/images/o5.png"," static/images/o4.png"," c d"," a"," static/images/o3.png",3230
"3225",174,11,1477926071913,"5"," static/images/o3.png"," static/images/o3.png"," static/images/o1.png"," Constant"," static/images/o3.png"," static/images/o4.png"," a d"," b"," static/images/o1.png",4356
"3226",174,12,1477926076965,"5"," static/images/o3.png"," static/images/o3.png"," static/images/o1.png"," Constant"," static/images/o5.png"," static/images/o3.png"," c a"," b"," static/images/o1.png",4273
"3227",174,13,1477926089450,"5"," static/images/o3.png"," static/images/o3.png"," static/images/o1.png"," Constant"," static/images/o3.png"," static/images/o1.png"," a b"," b"," static/images/o1.png",11848
"3228",174,14,1477926094066,"5"," static/images/o3.png"," static/images/o3.png"," static/images/o1.png"," Constant"," static/images/o5.png"," static/images/o1.png"," c b"," b"," static/images/o1.png",3854
"3229",174,15,1477926102443,"5"," static/images/o3.png"," static/images/o3.png"," static/images/o1.png"," Constant"," static/images/o3.png"," static/images/o5.png"," a c"," b"," static/images/o1.png",7724
"3230",174,16,1477926107510,"5"," static/images/o3.png"," static/images/o3.png"," static/images/o1.png"," Constant"," static/images/o5.png"," static/images/o5.png"," c c"," b"," static/images/o1.png",2991
"3231",174,17,1477926110896,"5"," static/images/o3.png"," static/images/o3.png"," static/images/o1.png"," Constant"," static/images/o4.png"," static/images/o3.png"," d a"," b"," static/images/o1.png",2587
"3232",174,18,1477926115247,"5"," static/images/o3.png"," static/images/o3.png"," static/images/o1.png"," Constant"," static/images/o1.png"," static/images/o3.png"," b a"," b"," static/images/o1.png",3379
"3233",174,19,1477926125729,"5"," static/images/o3.png"," static/images/o3.png"," static/images/o1.png"," Constant"," static/images/o4.png"," static/images/o1.png"," d b"," c"," static/images/o5.png",9657
"3234",174,20,1477926131223,"5"," static/images/o3.png"," static/images/o3.png"," static/images/o1.png"," Constant"," static/images/o1.png"," static/images/o5.png"," b c"," b"," static/images/o1.png",2871
"3235",174,21,1477926135462,"5"," static/images/o3.png"," static/images/o3.png"," static/images/o1.png"," Constant"," static/images/o1.png"," static/images/o4.png"," b d"," c"," static/images/o5.png",3462
"3236",174,22,1477926138498,"5"," static/images/o3.png"," static/images/o3.png"," static/images/o1.png"," Constant"," static/images/o3.png"," static/images/o3.png"," a a"," b"," static/images/o1.png",2358
"3244",308,8,1477929642605,"6"," static/images/o2.png"," static/images/o2.png"," static/images/o5.png"," Symmetry"," static/images/o4.png"," static/images/o4.png"," c c"," d"," static/images/o6.png",7754
"3245",308,9,1477929660630,"6"," static/images/o2.png"," static/images/o2.png"," static/images/o5.png"," Symmetry"," static/images/o6.png"," static/images/o2.png"," d a"," b"," static/images/o5.png",14138
"3246",308,10,1477929672396,"6"," static/images/o2.png"," static/images/o2.png"," static/images/o5.png"," Symmetry"," static/images/o2.png"," static/images/o4.png"," a c"," d"," static/images/o6.png",8827
"3247",308,11,1477929679400,"6"," static/images/o2.png"," static/images/o2.png"," static/images/o5.png"," Symmetry"," static/images/o2.png"," static/images/o2.png"," a a"," b"," static/images/o5.png",5308
"3248",308,12,1477929685153,"6"," static/images/o2.png"," static/images/o2.png"," static/images/o5.png"," Symmetry"," static/images/o5.png"," static/images/o5.png"," b b"," c"," static/images/o4.png",3629
"3249",308,13,1477929696337,"6"," static/images/o2.png"," static/images/o2.png"," static/images/o5.png"," Symmetry"," static/images/o6.png"," static/images/o4.png"," d c"," a"," static/images/o2.png",9457
"3250",308,14,1477929704171,"6"," static/images/o2.png"," static/images/o2.png"," static/images/o5.png"," Symmetry"," static/images/o2.png"," static/images/o5.png"," a b"," d"," static/images/o6.png",5670
"3251",308,15,1477929715751,"6"," static/images/o2.png"," static/images/o2.png"," static/images/o5.png"," Symmetry"," static/images/o2.png"," static/images/o6.png"," a d"," b"," static/images/o5.png",7768
"3252",308,16,1477929723575,"6"," static/images/o2.png"," static/images/o2.png"," static/images/o5.png"," Symmetry"," static/images/o5.png"," static/images/o4.png"," b c"," d"," static/images/o6.png",5279
"3253",308,17,1477929731431,"6"," static/images/o2.png"," static/images/o2.png"," static/images/o5.png"," Symmetry"," static/images/o6.png"," static/images/o5.png"," d b"," a"," static/images/o2.png",6541
"3254",308,18,1477929738439,"6"," static/images/o2.png"," static/images/o2.png"," static/images/o5.png"," Symmetry"," static/images/o5.png"," static/images/o2.png"," b a"," d"," static/images/o6.png",4425
"3255",308,19,1477929745009,"6"," static/images/o2.png"," static/images/o2.png"," static/images/o5.png"," Symmetry"," static/images/o4.png"," static/images/o5.png"," c b"," a"," static/images/o2.png",4407
"3256",308,20,1477929753643,"6"," static/images/o2.png"," static/images/o2.png"," static/images/o5.png"," Symmetry"," static/images/o4.png"," static/images/o6.png"," c d"," b"," static/images/o5.png",6087
"3257",308,21,1477929758991,"6"," static/images/o2.png"," static/images/o2.png"," static/images/o5.png"," Symmetry"," static/images/o5.png"," static/images/o6.png"," b d"," a"," static/images/o2.png",4040
"3258",308,22,1477929769437,"6"," static/images/o2.png"," static/images/o2.png"," static/images/o5.png"," Symmetry"," static/images/o4.png"," static/images/o2.png"," c a"," b"," static/images/o5.png",4056
"3266",193,8,1477926623175,"2"," static/images/o5.png"," static/images/o3.png"," static/images/o5.png"," ReturnApply"," static/images/o4.png"," static/images/o5.png"," d a"," a"," static/images/o5.png",20182
"3267",193,9,1477926641176,"2"," static/images/o5.png"," static/images/o3.png"," static/images/o5.png"," ReturnApply"," static/images/o6.png"," static/images/o5.png"," c a"," a"," static/images/o5.png",15137
"3268",193,10,1477926663352,"2"," static/images/o5.png"," static/images/o3.png"," static/images/o5.png"," ReturnApply"," static/images/o6.png"," static/images/o4.png"," c d"," d"," static/images/o4.png",19781
"3269",193,11,1477926667599,"2"," static/images/o5.png"," static/images/o3.png"," static/images/o5.png"," ReturnApply"," static/images/o5.png"," static/images/o4.png"," a d"," a"," static/images/o5.png",2466
"3270",193,12,1477926674493,"2"," static/images/o5.png"," static/images/o3.png"," static/images/o5.png"," ReturnApply"," static/images/o5.png"," static/images/o3.png"," a b"," a"," static/images/o5.png",4086
"3271",193,13,1477926680682,"2"," static/images/o5.png"," static/images/o3.png"," static/images/o5.png"," ReturnApply"," static/images/o3.png"," static/images/o4.png"," b d"," d"," static/images/o4.png",4171
"3272",193,14,1477926695227,"2"," static/images/o5.png"," static/images/o3.png"," static/images/o5.png"," ReturnApply"," static/images/o3.png"," static/images/o6.png"," b c"," c"," static/images/o6.png",12986
"3273",193,15,1477926700050,"2"," static/images/o5.png"," static/images/o3.png"," static/images/o5.png"," ReturnApply"," static/images/o4.png"," static/images/o3.png"," d b"," d"," static/images/o4.png",3848
"3274",193,16,1477926703826,"2"," static/images/o5.png"," static/images/o3.png"," static/images/o5.png"," ReturnApply"," static/images/o6.png"," static/images/o6.png"," c c"," c"," static/images/o6.png",2586
"3275",193,17,1477926707815,"2"," static/images/o5.png"," static/images/o3.png"," static/images/o5.png"," ReturnApply"," static/images/o6.png"," static/images/o3.png"," c b"," c"," static/images/o6.png",2556
"3276",193,18,1477926717298,"2"," static/images/o5.png"," static/images/o3.png"," static/images/o5.png"," ReturnApply"," static/images/o3.png"," static/images/o5.png"," b a"," a"," static/images/o5.png",8543
"3277",193,19,1477926721631,"2"," static/images/o5.png"," static/images/o3.png"," static/images/o5.png"," ReturnApply"," static/images/o3.png"," static/images/o3.png"," b b"," b"," static/images/o3.png",2990
"3278",193,20,1477926724597,"2"," static/images/o5.png"," static/images/o3.png"," static/images/o5.png"," ReturnApply"," static/images/o5.png"," static/images/o6.png"," a c"," a"," static/images/o5.png",1816
"3279",193,21,1477926727799,"2"," static/images/o5.png"," static/images/o3.png"," static/images/o5.png"," ReturnApply"," static/images/o5.png"," static/images/o5.png"," a a"," a"," static/images/o5.png",2032
"3280",193,22,1477926733751,"2"," static/images/o5.png"," static/images/o3.png"," static/images/o5.png"," ReturnApply"," static/images/o4.png"," static/images/o6.png"," d c"," d"," static/images/o4.png",4912
"3288",25,8,1477926769440,"6"," static/images/o1.png"," static/images/o1.png"," static/images/o4.png"," Symmetry"," static/images/o4.png"," static/images/o3.png"," b c"," d"," static/images/o6.png",36348
"3289",25,9,1477926791286,"6"," static/images/o1.png"," static/images/o1.png"," static/images/o4.png"," Symmetry"," static/images/o3.png"," static/images/o4.png"," c b"," d"," static/images/o6.png",20401
"3290",25,10,1477926833511,"6"," static/images/o1.png"," static/images/o1.png"," static/images/o4.png"," Symmetry"," static/images/o3.png"," static/images/o1.png"," c a"," d"," static/images/o6.png",38512
"3291",25,11,1477926854656,"6"," static/images/o1.png"," static/images/o1.png"," static/images/o4.png"," Symmetry"," static/images/o4.png"," static/images/o6.png"," b d"," c"," static/images/o3.png",18910
"3292",25,12,1477926872442,"6"," static/images/o1.png"," static/images/o1.png"," static/images/o4.png"," Symmetry"," static/images/o6.png"," static/images/o1.png"," d a"," b"," static/images/o4.png",8445
"3293",25,13,1477926884137,"6"," static/images/o1.png"," static/images/o1.png"," static/images/o4.png"," Symmetry"," static/images/o6.png"," static/images/o3.png"," d c"," c"," static/images/o3.png",10543
"3294",25,14,1477926891519,"6"," static/images/o1.png"," static/images/o1.png"," static/images/o4.png"," Symmetry"," static/images/o1.png"," static/images/o6.png"," a d"," b"," static/images/o4.png",6247
"3295",25,15,1477926918560,"6"," static/images/o1.png"," static/images/o1.png"," static/images/o4.png"," Symmetry"," static/images/o1.png"," static/images/o3.png"," a c"," d"," static/images/o6.png",25721
"3296",25,16,1477926932729,"6"," static/images/o1.png"," static/images/o1.png"," static/images/o4.png"," Symmetry"," static/images/o3.png"," static/images/o6.png"," c d"," b"," static/images/o4.png",13014
"3297",25,17,1477926943572,"6"," static/images/o1.png"," static/images/o1.png"," static/images/o4.png"," Symmetry"," static/images/o4.png"," static/images/o4.png"," b b"," c"," static/images/o3.png",9634
"3298",25,18,1477926953165,"6"," static/images/o1.png"," static/images/o1.png"," static/images/o4.png"," Symmetry"," static/images/o3.png"," static/images/o3.png"," c c"," d"," static/images/o6.png",7747
"3299",25,19,1477926974575,"6"," static/images/o1.png"," static/images/o1.png"," static/images/o4.png"," Symmetry"," static/images/o6.png"," static/images/o4.png"," d b"," a"," static/images/o1.png",19882
"3300",25,20,1477926995636,"6"," static/images/o1.png"," static/images/o1.png"," static/images/o4.png"," Symmetry"," static/images/o1.png"," static/images/o4.png"," a b"," d"," static/images/o6.png",19945
"3301",25,21,1477927001619,"6"," static/images/o1.png"," static/images/o1.png"," static/images/o4.png"," Symmetry"," static/images/o1.png"," static/images/o1.png"," a a"," b"," static/images/o4.png",4852
"3302",25,22,1477927019223,"6"," static/images/o1.png"," static/images/o1.png"," static/images/o4.png"," Symmetry"," static/images/o4.png"," static/images/o1.png"," b a"," d"," static/images/o6.png",16333
"3310",253,8,1477930424281,"4"," static/images/o4.png"," static/images/o5.png"," static/images/o5.png"," ReturnSame"," static/images/o4.png"," static/images/o4.png"," a a"," b"," static/images/o5.png",17111
"3311",253,9,1477930439381,"4"," static/images/o4.png"," static/images/o5.png"," static/images/o5.png"," ReturnSame"," static/images/o4.png"," static/images/o3.png"," a d"," b"," static/images/o5.png",12436
"3312",253,10,1477930452122,"4"," static/images/o4.png"," static/images/o5.png"," static/images/o5.png"," ReturnSame"," static/images/o2.png"," static/images/o5.png"," c b"," d"," static/images/o3.png",12052
"3313",253,11,1477930463540,"4"," static/images/o4.png"," static/images/o5.png"," static/images/o5.png"," ReturnSame"," static/images/o3.png"," static/images/o5.png"," d b"," b"," static/images/o5.png",10562
"3314",253,12,1477930469539,"4"," static/images/o4.png"," static/images/o5.png"," static/images/o5.png"," ReturnSame"," static/images/o2.png"," static/images/o3.png"," c d"," c"," static/images/o2.png",4271
"3315",253,13,1477930474842,"4"," static/images/o4.png"," static/images/o5.png"," static/images/o5.png"," ReturnSame"," static/images/o5.png"," static/images/o4.png"," b a"," b"," static/images/o5.png",4296
"3316",253,14,1477930479231,"4"," static/images/o4.png"," static/images/o5.png"," static/images/o5.png"," ReturnSame"," static/images/o3.png"," static/images/o2.png"," d c"," c"," static/images/o2.png",3454
"3317",253,15,1477930498469,"4"," static/images/o4.png"," static/images/o5.png"," static/images/o5.png"," ReturnSame"," static/images/o5.png"," static/images/o3.png"," b d"," a"," static/images/o4.png",18156
"3318",253,16,1477930508055,"4"," static/images/o4.png"," static/images/o5.png"," static/images/o5.png"," ReturnSame"," static/images/o2.png"," static/images/o2.png"," c c"," a"," static/images/o4.png",8726
"3319",253,17,1477930526071,"4"," static/images/o4.png"," static/images/o5.png"," static/images/o5.png"," ReturnSame"," static/images/o5.png"," static/images/o2.png"," b c"," a"," static/images/o4.png",15399
"3320",253,18,1477930531274,"4"," static/images/o4.png"," static/images/o5.png"," static/images/o5.png"," ReturnSame"," static/images/o4.png"," static/images/o2.png"," a c"," c"," static/images/o2.png",4403
"3321",253,19,1477930536057,"4"," static/images/o4.png"," static/images/o5.png"," static/images/o5.png"," ReturnSame"," static/images/o2.png"," static/images/o4.png"," c a"," c"," static/images/o2.png",4029
"3322",253,20,1477930540471,"4"," static/images/o4.png"," static/images/o5.png"," static/images/o5.png"," ReturnSame"," static/images/o4.png"," static/images/o5.png"," a b"," b"," static/images/o5.png",3660
"3323",253,21,1477930545802,"4"," static/images/o4.png"," static/images/o5.png"," static/images/o5.png"," ReturnSame"," static/images/o5.png"," static/images/o5.png"," b b"," a"," static/images/o4.png",4577
"3324",253,22,1477930550492,"4"," static/images/o4.png"," static/images/o5.png"," static/images/o5.png"," ReturnSame"," static/images/o3.png"," static/images/o4.png"," d a"," b"," static/images/o5.png",3853
"3332",175,8,1477926834488,"1"," static/images/o5.png"," static/images/o5.png"," static/images/o1.png"," ApplytoSelfNew"," static/images/o3.png"," static/images/o4.png"," c d"," b"," static/images/o1.png",18990
"3333",175,9,1477926855951,"1"," static/images/o5.png"," static/images/o5.png"," static/images/o1.png"," ApplytoSelfNew"," static/images/o4.png"," static/images/o1.png"," d b"," c"," static/images/o3.png",19511
"3334",175,10,1477926884128,"1"," static/images/o5.png"," static/images/o5.png"," static/images/o1.png"," ApplytoSelfNew"," static/images/o1.png"," static/images/o3.png"," b c"," a"," static/images/o5.png",26121
"3335",175,11,1477926894201,"1"," static/images/o5.png"," static/images/o5.png"," static/images/o1.png"," ApplytoSelfNew"," static/images/o5.png"," static/images/o4.png"," a d"," b"," static/images/o1.png",8728
"3336",175,12,1477926900056,"1"," static/images/o5.png"," static/images/o5.png"," static/images/o1.png"," ApplytoSelfNew"," static/images/o5.png"," static/images/o5.png"," a a"," b"," static/images/o1.png",4057
"3337",175,13,1477926912161,"1"," static/images/o5.png"," static/images/o5.png"," static/images/o1.png"," ApplytoSelfNew"," static/images/o3.png"," static/images/o1.png"," c b"," a"," static/images/o5.png",9265
"3338",175,14,1477926922552,"1"," static/images/o5.png"," static/images/o5.png"," static/images/o1.png"," ApplytoSelfNew"," static/images/o1.png"," static/images/o4.png"," b d"," c"," static/images/o3.png",9511
"3339",175,15,1477926932264,"1"," static/images/o5.png"," static/images/o5.png"," static/images/o1.png"," ApplytoSelfNew"," static/images/o3.png"," static/images/o5.png"," c a"," b"," static/images/o1.png",8712
"3340",175,16,1477926937248,"1"," static/images/o5.png"," static/images/o5.png"," static/images/o1.png"," ApplytoSelfNew"," static/images/o3.png"," static/images/o3.png"," c c"," b"," static/images/o1.png",4209
"3341",175,17,1477926942981,"1"," static/images/o5.png"," static/images/o5.png"," static/images/o1.png"," ApplytoSelfNew"," static/images/o5.png"," static/images/o3.png"," a c"," b"," static/images/o1.png",4717
"3342",175,18,1477926948137,"1"," static/images/o5.png"," static/images/o5.png"," static/images/o1.png"," ApplytoSelfNew"," static/images/o1.png"," static/images/o1.png"," b b"," c"," static/images/o3.png",4385
"3343",175,19,1477926956823,"1"," static/images/o5.png"," static/images/o5.png"," static/images/o1.png"," ApplytoSelfNew"," static/images/o1.png"," static/images/o5.png"," b a"," c"," static/images/o3.png",7528
"3344",175,20,1477926966680,"1"," static/images/o5.png"," static/images/o5.png"," static/images/o1.png"," ApplytoSelfNew"," static/images/o5.png"," static/images/o1.png"," a b"," c"," static/images/o3.png",8840
"3345",175,21,1477926972095,"1"," static/images/o5.png"," static/images/o5.png"," static/images/o1.png"," ApplytoSelfNew"," static/images/o4.png"," static/images/o3.png"," d c"," b"," static/images/o1.png",4639
"3346",175,22,1477926979639,"1"," static/images/o5.png"," static/images/o5.png"," static/images/o1.png"," ApplytoSelfNew"," static/images/o4.png"," static/images/o5.png"," d a"," b"," static/images/o1.png",6703
"3354",263,8,1477926941749,"7"," static/images/o5.png"," static/images/o1.png"," static/images/o3.png"," Not"," static/images/o3.png"," static/images/o3.png"," c c"," b"," static/images/o1.png",10411
"3355",263,9,1477926955056,"7"," static/images/o5.png"," static/images/o1.png"," static/images/o3.png"," Not"," static/images/o5.png"," static/images/o3.png"," a c"," d"," static/images/o2.png",8532
"3356",263,10,1477926970680,"7"," static/images/o5.png"," static/images/o1.png"," static/images/o3.png"," Not"," static/images/o5.png"," static/images/o1.png"," a b"," c"," static/images/o3.png",13412
"3357",263,11,1477926987830,"7"," static/images/o5.png"," static/images/o1.png"," static/images/o3.png"," Not"," static/images/o1.png"," static/images/o5.png"," b a"," d"," static/images/o2.png",16142
"3358",263,12,1477926998775,"7"," static/images/o5.png"," static/images/o1.png"," static/images/o3.png"," Not"," static/images/o5.png"," static/images/o5.png"," a a"," c"," static/images/o3.png",10146
"3359",263,13,1477927006460,"7"," static/images/o5.png"," static/images/o1.png"," static/images/o3.png"," Not"," static/images/o2.png"," static/images/o1.png"," d b"," c"," static/images/o3.png",6920
"3360",263,14,1477927017363,"7"," static/images/o5.png"," static/images/o1.png"," static/images/o3.png"," Not"," static/images/o3.png"," static/images/o2.png"," c d"," b"," static/images/o1.png",9914
"3361",263,15,1477927054280,"7"," static/images/o5.png"," static/images/o1.png"," static/images/o3.png"," Not"," static/images/o5.png"," static/images/o2.png"," a d"," b"," static/images/o1.png",36163
"3362",263,16,1477927063072,"7"," static/images/o5.png"," static/images/o1.png"," static/images/o3.png"," Not"," static/images/o1.png"," static/images/o1.png"," b b"," d"," static/images/o2.png",7675
"3363",263,17,1477927072409,"7"," static/images/o5.png"," static/images/o1.png"," static/images/o3.png"," Not"," static/images/o3.png"," static/images/o1.png"," c b"," a"," static/images/o5.png",5221
"3364",263,18,1477927077726,"7"," static/images/o5.png"," static/images/o1.png"," static/images/o3.png"," Not"," static/images/o2.png"," static/images/o5.png"," d a"," b"," static/images/o1.png",4345
"3365",263,19,1477927086383,"7"," static/images/o5.png"," static/images/o1.png"," static/images/o3.png"," Not"," static/images/o1.png"," static/images/o2.png"," b d"," d"," static/images/o2.png",4481
"3366",263,20,1477927097679,"7"," static/images/o5.png"," static/images/o1.png"," static/images/o3.png"," Not"," static/images/o3.png"," static/images/o5.png"," c a"," d"," static/images/o2.png",10187
"3367",263,21,1477927103665,"7"," static/images/o5.png"," static/images/o1.png"," static/images/o3.png"," Not"," static/images/o2.png"," static/images/o3.png"," d c"," b"," static/images/o1.png",5072
"3368",263,22,1477927111392,"7"," static/images/o5.png"," static/images/o1.png"," static/images/o3.png"," Not"," static/images/o1.png"," static/images/o3.png"," b c"," a"," static/images/o5.png",6420
"3376",202,8,1477927077637,"5"," static/images/o1.png"," static/images/o1.png"," static/images/o6.png"," Constant"," static/images/o2.png"," static/images/o1.png"," d a"," c"," static/images/o5.png",4151
"3377",202,9,1477927084005,"5"," static/images/o1.png"," static/images/o1.png"," static/images/o6.png"," Constant"," static/images/o6.png"," static/images/o2.png"," b d"," a"," static/images/o1.png",4367
"3378",202,10,1477927090756,"5"," static/images/o1.png"," static/images/o1.png"," static/images/o6.png"," Constant"," static/images/o5.png"," static/images/o1.png"," c a"," b"," static/images/o6.png",6094
"3379",202,11,1477927095244,"5"," static/images/o1.png"," static/images/o1.png"," static/images/o6.png"," Constant"," static/images/o6.png"," static/images/o5.png"," b c"," c"," static/images/o5.png",3576
"3380",202,12,1477927099484,"5"," static/images/o1.png"," static/images/o1.png"," static/images/o6.png"," Constant"," static/images/o6.png"," static/images/o1.png"," b a"," d"," static/images/o2.png",3064
"3381",202,13,1477927102101,"5"," static/images/o1.png"," static/images/o1.png"," static/images/o6.png"," Constant"," static/images/o6.png"," static/images/o6.png"," b b"," b"," static/images/o6.png",2001
"3382",202,14,1477927104629,"5"," static/images/o1.png"," static/images/o1.png"," static/images/o6.png"," Constant"," static/images/o1.png"," static/images/o5.png"," a c"," c"," static/images/o5.png",1977
"3383",202,15,1477927109556,"5"," static/images/o1.png"," static/images/o1.png"," static/images/o6.png"," Constant"," static/images/o1.png"," static/images/o2.png"," a d"," b"," static/images/o6.png",3080
"3384",202,16,1477927111988,"5"," static/images/o1.png"," static/images/o1.png"," static/images/o6.png"," Constant"," static/images/o1.png"," static/images/o6.png"," a b"," d"," static/images/o2.png",1911
"3385",202,17,1477927114740,"5"," static/images/o1.png"," static/images/o1.png"," static/images/o6.png"," Constant"," static/images/o5.png"," static/images/o5.png"," c c"," c"," static/images/o5.png",1968
"3386",202,18,1477927117222,"5"," static/images/o1.png"," static/images/o1.png"," static/images/o6.png"," Constant"," static/images/o1.png"," static/images/o1.png"," a a"," a"," static/images/o1.png",1898
"3387",202,19,1477927122452,"5"," static/images/o1.png"," static/images/o1.png"," static/images/o6.png"," Constant"," static/images/o5.png"," static/images/o6.png"," c b"," d"," static/images/o2.png",4735
"3388",202,20,1477927126700,"5"," static/images/o1.png"," static/images/o1.png"," static/images/o6.png"," Constant"," static/images/o2.png"," static/images/o5.png"," d c"," a"," static/images/o1.png",3712
"3389",202,21,1477927130956,"5"," static/images/o1.png"," static/images/o1.png"," static/images/o6.png"," Constant"," static/images/o5.png"," static/images/o2.png"," c d"," b"," static/images/o6.png",3600
"3390",202,22,1477927133844,"5"," static/images/o1.png"," static/images/o1.png"," static/images/o6.png"," Constant"," static/images/o2.png"," static/images/o6.png"," d b"," a"," static/images/o1.png",2233
"3398",5,8,1477927124304,"3"," static/images/o4.png"," static/images/o4.png"," static/images/o4.png"," ApplytoSelfSame"," static/images/o6.png"," static/images/o4.png"," c a"," b"," static/images/o5.png",24700
"3399",5,9,1477927132262,"3"," static/images/o4.png"," static/images/o4.png"," static/images/o4.png"," ApplytoSelfSame"," static/images/o4.png"," static/images/o6.png"," a c"," b"," static/images/o5.png",7187
"3400",5,10,1477927144347,"3"," static/images/o4.png"," static/images/o4.png"," static/images/o4.png"," ApplytoSelfSame"," static/images/o5.png"," static/images/o6.png"," b c"," a"," static/images/o4.png",7379
"3401",5,11,1477927148730,"3"," static/images/o4.png"," static/images/o4.png"," static/images/o4.png"," ApplytoSelfSame"," static/images/o4.png"," static/images/o5.png"," a b"," c"," static/images/o6.png",3503
"3402",5,12,1477927156439,"3"," static/images/o4.png"," static/images/o4.png"," static/images/o4.png"," ApplytoSelfSame"," static/images/o5.png"," static/images/o5.png"," b b"," b"," static/images/o5.png",5549
"3403",5,13,1477927160165,"3"," static/images/o4.png"," static/images/o4.png"," static/images/o4.png"," ApplytoSelfSame"," static/images/o6.png"," static/images/o6.png"," c c"," c"," static/images/o6.png",2774
"3404",5,14,1477927165361,"3"," static/images/o4.png"," static/images/o4.png"," static/images/o4.png"," ApplytoSelfSame"," static/images/o6.png"," static/images/o5.png"," c b"," a"," static/images/o4.png",4627
"3405",5,15,1477927168457,"3"," static/images/o4.png"," static/images/o4.png"," static/images/o4.png"," ApplytoSelfSame"," static/images/o4.png"," static/images/o4.png"," a a"," a"," static/images/o4.png",2159
"3406",5,16,1477927174136,"3"," static/images/o4.png"," static/images/o4.png"," static/images/o4.png"," ApplytoSelfSame"," static/images/o5.png"," static/images/o4.png"," b a"," c"," static/images/o6.png",4807
"3420",89,8,1477927288561,"5"," static/images/o1.png"," static/images/o1.png"," static/images/o6.png"," Constant"," static/images/o5.png"," static/images/o3.png"," c d"," a"," static/images/o1.png",9107
"3421",89,9,1477927298599,"5"," static/images/o1.png"," static/images/o1.png"," static/images/o6.png"," Constant"," static/images/o5.png"," static/images/o1.png"," c a"," b"," static/images/o6.png",8586
"3422",89,10,1477927306103,"5"," static/images/o1.png"," static/images/o1.png"," static/images/o6.png"," Constant"," static/images/o3.png"," static/images/o1.png"," d a"," c"," static/images/o5.png",6355
"3423",89,11,1477927311772,"5"," static/images/o1.png"," static/images/o1.png"," static/images/o6.png"," Constant"," static/images/o5.png"," static/images/o6.png"," c b"," d"," static/images/o3.png",4627
"3424",89,12,1477927315283,"5"," static/images/o1.png"," static/images/o1.png"," static/images/o6.png"," Constant"," static/images/o6.png"," static/images/o5.png"," b c"," a"," static/images/o1.png",2574
"3425",89,13,1477927319227,"5"," static/images/o1.png"," static/images/o1.png"," static/images/o6.png"," Constant"," static/images/o1.png"," static/images/o1.png"," a a"," b"," static/images/o6.png",2880
"3426",89,14,1477927322155,"5"," static/images/o1.png"," static/images/o1.png"," static/images/o6.png"," Constant"," static/images/o5.png"," static/images/o5.png"," c c"," d"," static/images/o3.png",2369
"3427",89,15,1477927332017,"5"," static/images/o1.png"," static/images/o1.png"," static/images/o6.png"," Constant"," static/images/o1.png"," static/images/o5.png"," a c"," d"," static/images/o3.png",9022
"3428",89,16,1477927335265,"5"," static/images/o1.png"," static/images/o1.png"," static/images/o6.png"," Constant"," static/images/o3.png"," static/images/o6.png"," d b"," a"," static/images/o1.png",2692
"3429",89,17,1477927339199,"5"," static/images/o1.png"," static/images/o1.png"," static/images/o6.png"," Constant"," static/images/o1.png"," static/images/o6.png"," a b"," b"," static/images/o6.png",3382
"3430",89,18,1477927345128,"5"," static/images/o1.png"," static/images/o1.png"," static/images/o6.png"," Constant"," static/images/o6.png"," static/images/o1.png"," b a"," c"," static/images/o5.png",3377
"3431",89,19,1477927349559,"5"," static/images/o1.png"," static/images/o1.png"," static/images/o6.png"," Constant"," static/images/o6.png"," static/images/o6.png"," b b"," a"," static/images/o1.png",2832
"3432",89,20,1477927353204,"5"," static/images/o1.png"," static/images/o1.png"," static/images/o6.png"," Constant"," static/images/o3.png"," static/images/o5.png"," d c"," c"," static/images/o5.png",3003
"3433",89,21,1477927356220,"5"," static/images/o1.png"," static/images/o1.png"," static/images/o6.png"," Constant"," static/images/o6.png"," static/images/o3.png"," b d"," a"," static/images/o1.png",1980
"3434",89,22,1477927359474,"5"," static/images/o1.png"," static/images/o1.png"," static/images/o6.png"," Constant"," static/images/o1.png"," static/images/o3.png"," a d"," c"," static/images/o5.png",2570
"3442",4,8,1477927446954,"7"," static/images/o3.png"," static/images/o4.png"," static/images/o6.png"," Not"," static/images/o6.png"," static/images/o4.png"," c b"," a"," static/images/o3.png",14901
