"","WorkerID","Trial","TimeStamp","Condition","Argument1","Correct","ConditionID","Testarg1","Testarg2","Question","Response","ResponseImage","RT"
"7",62,8,1480622930927,"2"," static/images/o2.png"," static/images/o6.png"," ConstantB"," static/images/o2.png"," static/images/o2.png"," a"," b"," static/images/o6.png",3957
"8",62,9,1480622937069,"2"," static/images/o2.png"," static/images/o6.png"," ConstantB"," static/images/o4.png"," static/images/o2.png"," c"," d"," static/images/o5.png",4031
"9",62,10,1480622947755,"2"," static/images/o2.png"," static/images/o6.png"," ConstantB"," static/images/o5.png"," static/images/o2.png"," d"," e"," static/images/o3.png",8502
"10",62,11,1480622952240,"2"," static/images/o2.png"," static/images/o6.png"," ConstantB"," static/images/o6.png"," static/images/o6.png"," b"," b"," static/images/o6.png",3362
"18",100,8,1480622957292,"1"," static/images/o4.png"," static/images/o1.png"," Negation"," static/images/o4.png"," static/images/o4.png"," a"," b"," static/images/o1.png",2931
"19",100,9,1480622965889,"1"," static/images/o4.png"," static/images/o1.png"," Negation"," static/images/o2.png"," static/images/o4.png"," c"," d"," static/images/o6.png",4485
"20",100,10,1480622969059,"1"," static/images/o4.png"," static/images/o1.png"," Negation"," static/images/o6.png"," static/images/o4.png"," d"," c"," static/images/o2.png",2055
"21",100,11,1480622972159,"1"," static/images/o4.png"," static/images/o1.png"," Negation"," static/images/o1.png"," static/images/o1.png"," b"," a"," static/images/o4.png",2333
"29",148,8,1480623001145,"3"," static/images/o3.png"," static/images/o3.png"," ConstantA"," static/images/o1.png"," static/images/o1.png"," b"," a"," static/images/o3.png",4252
"30",148,9,1480623006252,"3"," static/images/o3.png"," static/images/o3.png"," ConstantA"," static/images/o3.png"," static/images/o3.png"," a"," a"," static/images/o3.png",3404
"31",148,10,1480623024511,"3"," static/images/o3.png"," static/images/o3.png"," ConstantA"," static/images/o5.png"," static/images/o3.png"," c"," c"," static/images/o5.png",16932
"32",148,11,1480623031335,"3"," static/images/o3.png"," static/images/o3.png"," ConstantA"," static/images/o4.png"," static/images/o3.png"," d"," c"," static/images/o5.png",5305
"40",42,8,1480623247558,"0"," static/images/o5.png"," static/images/o3.png"," Successor"," static/images/o5.png"," static/images/o5.png"," a"," b"," static/images/o3.png",17706
"41",42,9,1480623260887,"0"," static/images/o5.png"," static/images/o3.png"," Successor"," static/images/o3.png"," static/images/o3.png"," b"," c"," static/images/o1.png",6558
"42",42,10,1480623278059,"0"," static/images/o5.png"," static/images/o3.png"," Successor"," static/images/o1.png"," static/images/o5.png"," c"," d"," static/images/o4.png",14543
"43",42,11,1480623294806,"0"," static/images/o5.png"," static/images/o3.png"," Successor"," static/images/o4.png"," static/images/o5.png"," d"," c"," static/images/o1.png",14621
"51",118,8,1480623609195,"2"," static/images/o6.png"," static/images/o1.png"," ConstantB"," static/images/o6.png"," static/images/o6.png"," a"," b"," static/images/o1.png",6352
"52",118,9,1480623626638,"2"," static/images/o6.png"," static/images/o1.png"," ConstantB"," static/images/o3.png"," static/images/o6.png"," d"," c"," static/images/o2.png",14613
"53",118,10,1480623631891,"2"," static/images/o6.png"," static/images/o1.png"," ConstantB"," static/images/o2.png"," static/images/o6.png"," c"," e"," static/images/o5.png",3505
"54",118,11,1480623635408,"2"," static/images/o6.png"," static/images/o1.png"," ConstantB"," static/images/o1.png"," static/images/o1.png"," b"," b"," static/images/o1.png",2017
"62",105,8,1480623532979,"1"," static/images/o3.png"," static/images/o5.png"," Negation"," static/images/o5.png"," static/images/o5.png"," b"," a"," static/images/o3.png",7135
"63",105,9,1480623539050,"1"," static/images/o3.png"," static/images/o5.png"," Negation"," static/images/o1.png"," static/images/o3.png"," c"," d"," static/images/o4.png",4928
"64",105,10,1480623545426,"1"," static/images/o3.png"," static/images/o5.png"," Negation"," static/images/o4.png"," static/images/o3.png"," d"," c"," static/images/o1.png",4472
"65",105,11,1480623549644,"1"," static/images/o3.png"," static/images/o5.png"," Negation"," static/images/o3.png"," static/images/o3.png"," a"," b"," static/images/o5.png",2730
"73",151,8,1480623889650,"3"," static/images/o4.png"," static/images/o4.png"," ConstantA"," static/images/o2.png"," static/images/o2.png"," b"," a"," static/images/o4.png",3959
"74",151,9,1480623893819,"3"," static/images/o4.png"," static/images/o4.png"," ConstantA"," static/images/o4.png"," static/images/o4.png"," a"," a"," static/images/o4.png",2329
"75",151,10,1480623904756,"3"," static/images/o4.png"," static/images/o4.png"," ConstantA"," static/images/o1.png"," static/images/o4.png"," c"," a"," static/images/o4.png",10416
"76",151,11,1480623908306,"3"," static/images/o4.png"," static/images/o4.png"," ConstantA"," static/images/o3.png"," static/images/o4.png"," d"," a"," static/images/o4.png",2807
"84",40,8,1480623698312,"0"," static/images/o5.png"," static/images/o1.png"," Successor"," static/images/o1.png"," static/images/o1.png"," b"," d"," static/images/o2.png",20820
"85",40,9,1480623715392,"0"," static/images/o5.png"," static/images/o1.png"," Successor"," static/images/o6.png"," static/images/o5.png"," c"," d"," static/images/o2.png",12805
"86",40,10,1480623722515,"0"," static/images/o5.png"," static/images/o1.png"," Successor"," static/images/o2.png"," static/images/o5.png"," d"," e"," static/images/o3.png",5347
"87",40,11,1480623732735,"0"," static/images/o5.png"," static/images/o1.png"," Successor"," static/images/o5.png"," static/images/o5.png"," a"," d"," static/images/o2.png",8820
"95",19,8,1480623676042,"3"," static/images/o4.png"," static/images/o4.png"," ConstantA"," static/images/o6.png"," static/images/o6.png"," b"," a"," static/images/o4.png",6967
"96",19,9,1480623681174,"3"," static/images/o4.png"," static/images/o4.png"," ConstantA"," static/images/o4.png"," static/images/o4.png"," a"," a"," static/images/o4.png",3113
"97",19,10,1480623689546,"3"," static/images/o4.png"," static/images/o4.png"," ConstantA"," static/images/o5.png"," static/images/o4.png"," c"," e"," static/images/o1.png",7090
"98",19,11,1480623706454,"3"," static/images/o4.png"," static/images/o4.png"," ConstantA"," static/images/o3.png"," static/images/o4.png"," d"," c"," static/images/o5.png",15417
"106",43,8,1480624210990,"2"," static/images/o2.png"," static/images/o3.png"," ConstantB"," static/images/o1.png"," static/images/o2.png"," c"," d"," static/images/o4.png",16502
"107",43,9,1480624220533,"2"," static/images/o2.png"," static/images/o3.png"," ConstantB"," static/images/o4.png"," static/images/o2.png"," d"," c"," static/images/o1.png",4728
"108",43,10,1480624229393,"2"," static/images/o2.png"," static/images/o3.png"," ConstantB"," static/images/o3.png"," static/images/o3.png"," b"," b"," static/images/o3.png",7451
"109",43,11,1480624234693,"2"," static/images/o2.png"," static/images/o3.png"," ConstantB"," static/images/o2.png"," static/images/o2.png"," a"," b"," static/images/o3.png",3676
"117",147,8,1480624356693,"4"," static/images/o2.png"," static/images/o2.png"," Identity"," static/images/o4.png"," static/images/o4.png"," b"," b"," static/images/o4.png",9730
"118",147,9,1480624362798,"4"," static/images/o2.png"," static/images/o2.png"," Identity"," static/images/o1.png"," static/images/o2.png"," d"," e"," static/images/o3.png",4795
"119",147,10,1480624366163,"4"," static/images/o2.png"," static/images/o2.png"," Identity"," static/images/o2.png"," static/images/o2.png"," a"," a"," static/images/o2.png",2127
"120",147,11,1480624370898,"4"," static/images/o2.png"," static/images/o2.png"," Identity"," static/images/o6.png"," static/images/o2.png"," c"," c"," static/images/o6.png",3558
"128",93,8,1480624402045,"0"," static/images/o4.png"," static/images/o2.png"," Successor"," static/images/o2.png"," static/images/o2.png"," b"," d"," static/images/o1.png",37375
"129",93,9,1480624404421,"0"," static/images/o4.png"," static/images/o2.png"," Successor"," static/images/o6.png"," static/images/o4.png"," c"," e"," static/images/o5.png",1608
"130",93,10,1480624406788,"0"," static/images/o4.png"," static/images/o2.png"," Successor"," static/images/o4.png"," static/images/o4.png"," a"," c"," static/images/o6.png",1386
"131",93,11,1480624409392,"0"," static/images/o4.png"," static/images/o2.png"," Successor"," static/images/o1.png"," static/images/o4.png"," d"," b"," static/images/o2.png",1683
"139",3,8,1480624713924,"1"," static/images/o5.png"," static/images/o6.png"," Negation"," static/images/o2.png"," static/images/o5.png"," d"," c"," static/images/o4.png",7899
"140",3,9,1480624718283,"1"," static/images/o5.png"," static/images/o6.png"," Negation"," static/images/o4.png"," static/images/o5.png"," c"," d"," static/images/o2.png",2620
"141",3,10,1480624722387,"1"," static/images/o5.png"," static/images/o6.png"," Negation"," static/images/o5.png"," static/images/o5.png"," a"," b"," static/images/o6.png",2786
"142",3,11,1480624725849,"1"," static/images/o5.png"," static/images/o6.png"," Negation"," static/images/o6.png"," static/images/o6.png"," b"," a"," static/images/o5.png",2123
"150",144,8,1480624833949,"1"," static/images/o4.png"," static/images/o3.png"," Negation"," static/images/o1.png"," static/images/o4.png"," c"," d"," static/images/o2.png",6227
"151",144,9,1480624839162,"1"," static/images/o4.png"," static/images/o3.png"," Negation"," static/images/o2.png"," static/images/o4.png"," d"," c"," static/images/o1.png",4178
"152",144,10,1480624844581,"1"," static/images/o4.png"," static/images/o3.png"," Negation"," static/images/o3.png"," static/images/o3.png"," b"," a"," static/images/o4.png",4684
"153",144,11,1480624847230,"1"," static/images/o4.png"," static/images/o3.png"," Negation"," static/images/o4.png"," static/images/o4.png"," a"," b"," static/images/o3.png",2051
"161",108,8,1480624785248,"2"," static/images/o1.png"," static/images/o2.png"," ConstantB"," static/images/o1.png"," static/images/o1.png"," a"," b"," static/images/o2.png",11017
"162",108,9,1480624795295,"2"," static/images/o1.png"," static/images/o2.png"," ConstantB"," static/images/o4.png"," static/images/o1.png"," d"," a"," static/images/o1.png",7963
"163",108,10,1480624800430,"2"," static/images/o1.png"," static/images/o2.png"," ConstantB"," static/images/o2.png"," static/images/o2.png"," b"," b"," static/images/o2.png",2770
"164",108,11,1480624806449,"2"," static/images/o1.png"," static/images/o2.png"," ConstantB"," static/images/o5.png"," static/images/o1.png"," c"," d"," static/images/o4.png",5046
"172",132,8,1480625178067,"3"," static/images/o1.png"," static/images/o1.png"," ConstantA"," static/images/o1.png"," static/images/o1.png"," a"," b"," static/images/o3.png",37484
"173",132,9,1480625196508,"3"," static/images/o1.png"," static/images/o1.png"," ConstantA"," static/images/o2.png"," static/images/o1.png"," d"," e"," static/images/o6.png",15584
"174",132,10,1480625205132,"3"," static/images/o1.png"," static/images/o1.png"," ConstantA"," static/images/o3.png"," static/images/o3.png"," b"," a"," static/images/o1.png",5493
"175",132,11,1480625218557,"3"," static/images/o1.png"," static/images/o1.png"," ConstantA"," static/images/o5.png"," static/images/o1.png"," c"," d"," static/images/o2.png",10108
"183",33,8,1480625249980,"1"," static/images/o6.png"," static/images/o5.png"," Negation"," static/images/o6.png"," static/images/o6.png"," a"," b"," static/images/o5.png",7606
"184",33,9,1480625257398,"1"," static/images/o6.png"," static/images/o5.png"," Negation"," static/images/o5.png"," static/images/o5.png"," b"," a"," static/images/o6.png",2993
"185",33,10,1480625269460,"1"," static/images/o6.png"," static/images/o5.png"," Negation"," static/images/o4.png"," static/images/o6.png"," c"," d"," static/images/o3.png",10803
"186",33,11,1480625275944,"1"," static/images/o6.png"," static/images/o5.png"," Negation"," static/images/o3.png"," static/images/o6.png"," d"," c"," static/images/o4.png",4803
"194",111,8,1480625394489,"4"," static/images/o6.png"," static/images/o6.png"," Identity"," static/images/o2.png"," static/images/o2.png"," b"," b"," static/images/o2.png",5463
"195",111,9,1480625401590,"4"," static/images/o6.png"," static/images/o6.png"," Identity"," static/images/o3.png"," static/images/o6.png"," d"," d"," static/images/o3.png",4848
"196",111,10,1480625409346,"4"," static/images/o6.png"," static/images/o6.png"," Identity"," static/images/o1.png"," static/images/o6.png"," c"," c"," static/images/o1.png",5817
"197",111,11,1480625415180,"4"," static/images/o6.png"," static/images/o6.png"," Identity"," static/images/o6.png"," static/images/o6.png"," a"," a"," static/images/o6.png",3639
"205",80,8,1480625797281,"4"," static/images/o4.png"," static/images/o4.png"," Identity"," static/images/o4.png"," static/images/o4.png"," a"," a"," static/images/o4.png",12810
"206",80,9,1480625801895,"4"," static/images/o4.png"," static/images/o4.png"," Identity"," static/images/o2.png"," static/images/o2.png"," b"," b"," static/images/o2.png",2862
"207",80,10,1480625805574,"4"," static/images/o4.png"," static/images/o4.png"," Identity"," static/images/o5.png"," static/images/o4.png"," c"," c"," static/images/o5.png",3047
"208",80,11,1480625810982,"4"," static/images/o4.png"," static/images/o4.png"," Identity"," static/images/o1.png"," static/images/o4.png"," d"," d"," static/images/o1.png",4800
"216",140,8,1480626061518,"0"," static/images/o4.png"," static/images/o6.png"," Successor"," static/images/o4.png"," static/images/o4.png"," a"," b"," static/images/o6.png",8525
"217",140,9,1480626069422,"0"," static/images/o4.png"," static/images/o6.png"," Successor"," static/images/o2.png"," static/images/o4.png"," d"," e"," static/images/o3.png",7144
"218",140,10,1480626077006,"0"," static/images/o4.png"," static/images/o6.png"," Successor"," static/images/o6.png"," static/images/o6.png"," b"," c"," static/images/o1.png",5727
"219",140,11,1480626085903,"0"," static/images/o4.png"," static/images/o6.png"," Successor"," static/images/o1.png"," static/images/o4.png"," c"," d"," static/images/o2.png",7497
"227",70,8,1480626063799,"3"," static/images/o5.png"," static/images/o5.png"," ConstantA"," static/images/o6.png"," static/images/o5.png"," c"," c"," static/images/o6.png",8606
"228",70,9,1480626070033,"3"," static/images/o5.png"," static/images/o5.png"," ConstantA"," static/images/o3.png"," static/images/o3.png"," b"," a"," static/images/o5.png",4377
"229",70,10,1480626076346,"3"," static/images/o5.png"," static/images/o5.png"," ConstantA"," static/images/o5.png"," static/images/o5.png"," a"," a"," static/images/o5.png",3188
"230",70,11,1480626087122,"3"," static/images/o5.png"," static/images/o5.png"," ConstantA"," static/images/o1.png"," static/images/o5.png"," d"," a"," static/images/o5.png",7735
"238",37,8,1480626369287,"1"," static/images/o1.png"," static/images/o5.png"," Negation"," static/images/o3.png"," static/images/o1.png"," c"," d"," static/images/o4.png",4163
"239",37,9,1480626374887,"1"," static/images/o1.png"," static/images/o5.png"," Negation"," static/images/o5.png"," static/images/o5.png"," b"," d"," static/images/o4.png",4858
"240",37,10,1480626384829,"1"," static/images/o1.png"," static/images/o5.png"," Negation"," static/images/o1.png"," static/images/o1.png"," a"," b"," static/images/o5.png",2184
"241",37,11,1480626388223,"1"," static/images/o1.png"," static/images/o5.png"," Negation"," static/images/o4.png"," static/images/o1.png"," d"," c"," static/images/o3.png",2714
"249",86,8,1480627416317,"0"," static/images/o4.png"," static/images/o2.png"," Successor"," static/images/o1.png"," static/images/o4.png"," d"," e"," static/images/o5.png",20205
"250",86,9,1480627422172,"0"," static/images/o4.png"," static/images/o2.png"," Successor"," static/images/o4.png"," static/images/o4.png"," a"," b"," static/images/o2.png",4680
"251",86,10,1480627426866,"0"," static/images/o4.png"," static/images/o2.png"," Successor"," static/images/o6.png"," static/images/o4.png"," c"," d"," static/images/o1.png",3808
"252",86,11,1480627430477,"0"," static/images/o4.png"," static/images/o2.png"," Successor"," static/images/o2.png"," static/images/o2.png"," b"," c"," static/images/o6.png",2849
"260",76,8,1480628340912,"2"," static/images/o2.png"," static/images/o5.png"," ConstantB"," static/images/o6.png"," static/images/o2.png"," d"," b"," static/images/o5.png",5753
"261",76,9,1480628346363,"2"," static/images/o2.png"," static/images/o5.png"," ConstantB"," static/images/o2.png"," static/images/o2.png"," a"," b"," static/images/o5.png",2947
"262",76,10,1480628353313,"2"," static/images/o2.png"," static/images/o5.png"," ConstantB"," static/images/o3.png"," static/images/o2.png"," c"," b"," static/images/o5.png",4066
"263",76,11,1480628357970,"2"," static/images/o2.png"," static/images/o5.png"," ConstantB"," static/images/o5.png"," static/images/o5.png"," b"," b"," static/images/o5.png",2498
"271",119,8,1480628660920,"3"," static/images/o4.png"," static/images/o4.png"," ConstantA"," static/images/o5.png"," static/images/o4.png"," c"," a"," static/images/o4.png",9134
"272",119,9,1480628671724,"3"," static/images/o4.png"," static/images/o4.png"," ConstantA"," static/images/o4.png"," static/images/o4.png"," a"," a"," static/images/o4.png",8718
"273",119,10,1480628677820,"3"," static/images/o4.png"," static/images/o4.png"," ConstantA"," static/images/o3.png"," static/images/o4.png"," d"," c"," static/images/o5.png",4560
"274",119,11,1480628684602,"3"," static/images/o4.png"," static/images/o4.png"," ConstantA"," static/images/o2.png"," static/images/o2.png"," b"," a"," static/images/o4.png",5393
"282",72,8,1480629876200,"4"," static/images/o3.png"," static/images/o3.png"," Identity"," static/images/o3.png"," static/images/o3.png"," a"," a"," static/images/o3.png",3470
"283",72,9,1480629893725,"4"," static/images/o3.png"," static/images/o3.png"," Identity"," static/images/o5.png"," static/images/o3.png"," c"," c"," static/images/o5.png",15990
"284",72,10,1480629898317,"4"," static/images/o3.png"," static/images/o3.png"," Identity"," static/images/o6.png"," static/images/o6.png"," b"," b"," static/images/o6.png",3951
"285",72,11,1480629900829,"4"," static/images/o3.png"," static/images/o3.png"," Identity"," static/images/o1.png"," static/images/o3.png"," d"," d"," static/images/o1.png",1808
"293",36,8,1480629862765,"0"," static/images/o1.png"," static/images/o5.png"," Successor"," static/images/o4.png"," static/images/o1.png"," c"," d"," static/images/o2.png",26886
"294",36,9,1480629872723,"0"," static/images/o1.png"," static/images/o5.png"," Successor"," static/images/o5.png"," static/images/o5.png"," b"," c"," static/images/o4.png",8343
"295",36,10,1480629888390,"0"," static/images/o1.png"," static/images/o5.png"," Successor"," static/images/o2.png"," static/images/o1.png"," d"," e"," static/images/o6.png",14597
"296",36,11,1480629892583,"0"," static/images/o1.png"," static/images/o5.png"," Successor"," static/images/o1.png"," static/images/o1.png"," a"," b"," static/images/o5.png",3033
"304",41,8,1480629859211,"1"," static/images/o3.png"," static/images/o1.png"," Negation"," static/images/o4.png"," static/images/o3.png"," c"," d"," static/images/o2.png",8038
"305",41,9,1480629875765,"1"," static/images/o3.png"," static/images/o1.png"," Negation"," static/images/o2.png"," static/images/o3.png"," d"," c"," static/images/o4.png",8700
"306",41,10,1480629880545,"1"," static/images/o3.png"," static/images/o1.png"," Negation"," static/images/o3.png"," static/images/o3.png"," a"," b"," static/images/o1.png",2983
"307",41,11,1480629885466,"1"," static/images/o3.png"," static/images/o1.png"," Negation"," static/images/o1.png"," static/images/o1.png"," b"," a"," static/images/o3.png",3731
"315",133,8,1480630146440,"2"," static/images/o2.png"," static/images/o6.png"," ConstantB"," static/images/o2.png"," static/images/o2.png"," a"," b"," static/images/o6.png",10257
"316",133,9,1480630156894,"2"," static/images/o2.png"," static/images/o6.png"," ConstantB"," static/images/o5.png"," static/images/o2.png"," c"," d"," static/images/o4.png",8960
"317",133,10,1480630161942,"2"," static/images/o2.png"," static/images/o6.png"," ConstantB"," static/images/o6.png"," static/images/o6.png"," b"," b"," static/images/o6.png",3497
"318",133,11,1480630167702,"2"," static/images/o2.png"," static/images/o6.png"," ConstantB"," static/images/o4.png"," static/images/o2.png"," d"," e"," static/images/o3.png",4359
"326",30,8,1480630500023,"4"," static/images/o3.png"," static/images/o3.png"," Identity"," static/images/o1.png"," static/images/o1.png"," b"," e"," static/images/o5.png",11093
"327",30,9,1480630504316,"4"," static/images/o3.png"," static/images/o3.png"," Identity"," static/images/o4.png"," static/images/o3.png"," d"," b"," static/images/o1.png",2282
"328",30,10,1480630511556,"4"," static/images/o3.png"," static/images/o3.png"," Identity"," static/images/o6.png"," static/images/o3.png"," c"," a"," static/images/o3.png",5770
"329",30,11,1480630523416,"4"," static/images/o3.png"," static/images/o3.png"," Identity"," static/images/o3.png"," static/images/o3.png"," a"," b"," static/images/o1.png",9176
"337",145,8,1480630731332,"0"," static/images/o6.png"," static/images/o3.png"," Successor"," static/images/o5.png"," static/images/o6.png"," c"," e"," static/images/o2.png",21966
"338",145,9,1480630746901,"0"," static/images/o6.png"," static/images/o3.png"," Successor"," static/images/o1.png"," static/images/o6.png"," d"," e"," static/images/o2.png",14300
"339",145,10,1480630757340,"0"," static/images/o6.png"," static/images/o3.png"," Successor"," static/images/o6.png"," static/images/o6.png"," a"," b"," static/images/o3.png",4432
"340",145,11,1480630763155,"0"," static/images/o6.png"," static/images/o3.png"," Successor"," static/images/o3.png"," static/images/o3.png"," b"," c"," static/images/o5.png",5140
"348",125,8,1480630705793,"2"," static/images/o3.png"," static/images/o4.png"," ConstantB"," static/images/o2.png"," static/images/o3.png"," d"," e"," static/images/o5.png",11203
"349",125,9,1480630712020,"2"," static/images/o3.png"," static/images/o4.png"," ConstantB"," static/images/o3.png"," static/images/o3.png"," a"," b"," static/images/o4.png",5194
"350",125,10,1480630717870,"2"," static/images/o3.png"," static/images/o4.png"," ConstantB"," static/images/o4.png"," static/images/o4.png"," b"," b"," static/images/o4.png",5046
"351",125,11,1480630722493,"2"," static/images/o3.png"," static/images/o4.png"," ConstantB"," static/images/o6.png"," static/images/o3.png"," c"," d"," static/images/o2.png",3157
"359",50,8,1480630887981,"1"," static/images/o4.png"," static/images/o3.png"," Negation"," static/images/o2.png"," static/images/o4.png"," d"," c"," static/images/o1.png",7535
"360",50,9,1480630896341,"1"," static/images/o4.png"," static/images/o3.png"," Negation"," static/images/o4.png"," static/images/o4.png"," a"," b"," static/images/o3.png",6287
"361",50,10,1480630903068,"1"," static/images/o4.png"," static/images/o3.png"," Negation"," static/images/o1.png"," static/images/o4.png"," c"," d"," static/images/o2.png",5543
"362",50,11,1480630911110,"1"," static/images/o4.png"," static/images/o3.png"," Negation"," static/images/o3.png"," static/images/o3.png"," b"," a"," static/images/o4.png",7170
"376",2,8,1480632619167,"4"," static/images/o3.png"," static/images/o3.png"," Identity"," static/images/o6.png"," static/images/o3.png"," c"," a"," static/images/o3.png",7410
"377",2,9,1480632627696,"4"," static/images/o3.png"," static/images/o3.png"," Identity"," static/images/o4.png"," static/images/o3.png"," d"," d"," static/images/o4.png",5504
"378",2,10,1480632640808,"4"," static/images/o3.png"," static/images/o3.png"," Identity"," static/images/o1.png"," static/images/o1.png"," b"," b"," static/images/o1.png",11538
"379",2,11,1480632649776,"4"," static/images/o3.png"," static/images/o3.png"," Identity"," static/images/o3.png"," static/images/o3.png"," a"," a"," static/images/o3.png",7428
"387",8,8,1480632708565,"0"," static/images/o1.png"," static/images/o4.png"," Successor"," static/images/o2.png"," static/images/o1.png"," d"," e"," static/images/o3.png",18320
"388",8,9,1480632713995,"0"," static/images/o1.png"," static/images/o4.png"," Successor"," static/images/o5.png"," static/images/o1.png"," c"," d"," static/images/o2.png",3699
"389",8,10,1480632720867,"0"," static/images/o1.png"," static/images/o4.png"," Successor"," static/images/o1.png"," static/images/o1.png"," a"," b"," static/images/o4.png",4636
"390",8,11,1480632725974,"0"," static/images/o1.png"," static/images/o4.png"," Successor"," static/images/o4.png"," static/images/o4.png"," b"," c"," static/images/o5.png",2332
"398",101,8,1480634458424,"3"," static/images/o6.png"," static/images/o6.png"," ConstantA"," static/images/o5.png"," static/images/o6.png"," d"," b"," static/images/o3.png",15982
"399",101,9,1480634468426,"3"," static/images/o6.png"," static/images/o6.png"," ConstantA"," static/images/o6.png"," static/images/o6.png"," a"," a"," static/images/o6.png",7477
"400",101,10,1480634474922,"3"," static/images/o6.png"," static/images/o6.png"," ConstantA"," static/images/o4.png"," static/images/o6.png"," c"," d"," static/images/o5.png",4721
"401",101,11,1480634479320,"3"," static/images/o6.png"," static/images/o6.png"," ConstantA"," static/images/o3.png"," static/images/o3.png"," b"," a"," static/images/o6.png",2849
"415",18,8,1480636307803,"4"," static/images/o2.png"," static/images/o2.png"," Identity"," static/images/o2.png"," static/images/o2.png"," a"," a"," static/images/o2.png",7117
"416",18,9,1480636313105,"4"," static/images/o2.png"," static/images/o2.png"," Identity"," static/images/o6.png"," static/images/o6.png"," b"," b"," static/images/o6.png",2840
"417",18,10,1480636319951,"4"," static/images/o2.png"," static/images/o2.png"," Identity"," static/images/o4.png"," static/images/o2.png"," c"," c"," static/images/o4.png",2969
"418",18,11,1480636324150,"4"," static/images/o2.png"," static/images/o2.png"," Identity"," static/images/o5.png"," static/images/o2.png"," d"," d"," static/images/o5.png",2164
"426",82,8,1480636482635,"2"," static/images/o4.png"," static/images/o3.png"," ConstantB"," static/images/o3.png"," static/images/o3.png"," b"," b"," static/images/o3.png",4976
"427",82,9,1480636491649,"2"," static/images/o4.png"," static/images/o3.png"," ConstantB"," static/images/o2.png"," static/images/o4.png"," d"," c"," static/images/o5.png",5352
"428",82,10,1480636495181,"2"," static/images/o4.png"," static/images/o3.png"," ConstantB"," static/images/o4.png"," static/images/o4.png"," a"," b"," static/images/o3.png",2677
"429",82,11,1480636498109,"2"," static/images/o4.png"," static/images/o3.png"," ConstantB"," static/images/o5.png"," static/images/o4.png"," c"," d"," static/images/o2.png",2191
"437",75,8,1480636761240,"3"," static/images/o4.png"," static/images/o4.png"," ConstantA"," static/images/o5.png"," static/images/o4.png"," c"," a"," static/images/o4.png",12918
"438",75,9,1480636771900,"3"," static/images/o4.png"," static/images/o4.png"," ConstantA"," static/images/o3.png"," static/images/o4.png"," d"," a"," static/images/o4.png",8022
"439",75,10,1480636780712,"3"," static/images/o4.png"," static/images/o4.png"," ConstantA"," static/images/o4.png"," static/images/o4.png"," a"," a"," static/images/o4.png",6800
"440",75,11,1480636786768,"3"," static/images/o4.png"," static/images/o4.png"," ConstantA"," static/images/o1.png"," static/images/o1.png"," b"," a"," static/images/o4.png",4034
"454",48,8,1480637203038,"4"," static/images/o1.png"," static/images/o1.png"," Identity"," static/images/o1.png"," static/images/o1.png"," a"," a"," static/images/o1.png",11311
"455",48,9,1480637211471,"4"," static/images/o1.png"," static/images/o1.png"," Identity"," static/images/o4.png"," static/images/o4.png"," b"," b"," static/images/o4.png",5947
"456",48,10,1480637219492,"4"," static/images/o1.png"," static/images/o1.png"," Identity"," static/images/o6.png"," static/images/o1.png"," c"," c"," static/images/o6.png",5371
"457",48,11,1480637227505,"4"," static/images/o1.png"," static/images/o1.png"," Identity"," static/images/o5.png"," static/images/o1.png"," d"," d"," static/images/o5.png",4371
"465",4,8,1480637641249,"0"," static/images/o3.png"," static/images/o5.png"," Successor"," static/images/o5.png"," static/images/o5.png"," b"," d"," static/images/o4.png",13415
"466",4,9,1480637648032,"0"," static/images/o3.png"," static/images/o5.png"," Successor"," static/images/o4.png"," static/images/o3.png"," d"," e"," static/images/o6.png",5192
"467",4,10,1480637653814,"0"," static/images/o3.png"," static/images/o5.png"," Successor"," static/images/o3.png"," static/images/o3.png"," a"," b"," static/images/o5.png",3436
"468",4,11,1480637659968,"0"," static/images/o3.png"," static/images/o5.png"," Successor"," static/images/o2.png"," static/images/o3.png"," c"," d"," static/images/o4.png",2868
"476",55,8,1480637712453,"3"," static/images/o2.png"," static/images/o2.png"," ConstantA"," static/images/o2.png"," static/images/o2.png"," a"," c"," static/images/o1.png",6799
"477",55,9,1480637722470,"3"," static/images/o2.png"," static/images/o2.png"," ConstantA"," static/images/o3.png"," static/images/o2.png"," d"," e"," static/images/o4.png",8341
"478",55,10,1480637727759,"3"," static/images/o2.png"," static/images/o2.png"," ConstantA"," static/images/o6.png"," static/images/o6.png"," b"," a"," static/images/o2.png",4381
"479",55,11,1480637733657,"3"," static/images/o2.png"," static/images/o2.png"," ConstantA"," static/images/o1.png"," static/images/o2.png"," c"," d"," static/images/o3.png",5185
"487",27,8,1480637761688,"2"," static/images/o5.png"," static/images/o6.png"," ConstantB"," static/images/o6.png"," static/images/o6.png"," b"," b"," static/images/o6.png",4799
"488",27,9,1480637787733,"2"," static/images/o5.png"," static/images/o6.png"," ConstantB"," static/images/o2.png"," static/images/o5.png"," c"," e"," static/images/o4.png",21899
"489",27,10,1480637794630,"2"," static/images/o5.png"," static/images/o6.png"," ConstantB"," static/images/o5.png"," static/images/o5.png"," a"," b"," static/images/o6.png",4714
"490",27,11,1480637800501,"2"," static/images/o5.png"," static/images/o6.png"," ConstantB"," static/images/o1.png"," static/images/o5.png"," d"," a"," static/images/o5.png",4984
"498",155,8,1480638218925,"1"," static/images/o1.png"," static/images/o6.png"," Negation"," static/images/o6.png"," static/images/o6.png"," b"," a"," static/images/o1.png",10542
"499",155,9,1480638228809,"1"," static/images/o1.png"," static/images/o6.png"," Negation"," static/images/o5.png"," static/images/o1.png"," c"," d"," static/images/o3.png",7835
"500",155,10,1480638234069,"1"," static/images/o1.png"," static/images/o6.png"," Negation"," static/images/o3.png"," static/images/o1.png"," d"," c"," static/images/o5.png",3209
"501",155,11,1480638239606,"1"," static/images/o1.png"," static/images/o6.png"," Negation"," static/images/o1.png"," static/images/o1.png"," a"," b"," static/images/o6.png",3727
"509",115,8,1480638496475,"0"," static/images/o1.png"," static/images/o5.png"," Successor"," static/images/o4.png"," static/images/o1.png"," d"," e"," static/images/o6.png",7394
"510",115,9,1480638514851,"0"," static/images/o1.png"," static/images/o5.png"," Successor"," static/images/o2.png"," static/images/o1.png"," c"," d"," static/images/o4.png",12138
"511",115,10,1480638519011,"0"," static/images/o1.png"," static/images/o5.png"," Successor"," static/images/o1.png"," static/images/o1.png"," a"," b"," static/images/o5.png",2343
"512",115,11,1480638523185,"0"," static/images/o1.png"," static/images/o5.png"," Successor"," static/images/o5.png"," static/images/o5.png"," b"," c"," static/images/o2.png",3182
"520",47,8,1480639381460,"1"," static/images/o2.png"," static/images/o5.png"," Negation"," static/images/o3.png"," static/images/o2.png"," d"," c"," static/images/o6.png",9102
"521",47,9,1480639387355,"1"," static/images/o2.png"," static/images/o5.png"," Negation"," static/images/o5.png"," static/images/o5.png"," b"," a"," static/images/o2.png",4106
"522",47,10,1480639390360,"1"," static/images/o2.png"," static/images/o5.png"," Negation"," static/images/o2.png"," static/images/o2.png"," a"," b"," static/images/o5.png",2334
"523",47,11,1480639392236,"1"," static/images/o2.png"," static/images/o5.png"," Negation"," static/images/o6.png"," static/images/o2.png"," c"," d"," static/images/o3.png",1408
"531",89,8,1480639546056,"1"," static/images/o2.png"," static/images/o6.png"," Negation"," static/images/o3.png"," static/images/o2.png"," d"," c"," static/images/o5.png",9998
"532",89,9,1480639557933,"1"," static/images/o2.png"," static/images/o6.png"," Negation"," static/images/o6.png"," static/images/o6.png"," b"," a"," static/images/o2.png",10799
"533",89,10,1480639564269,"1"," static/images/o2.png"," static/images/o6.png"," Negation"," static/images/o5.png"," static/images/o2.png"," c"," d"," static/images/o3.png",4889
"534",89,11,1480639573619,"1"," static/images/o2.png"," static/images/o6.png"," Negation"," static/images/o2.png"," static/images/o2.png"," a"," b"," static/images/o6.png",7992
"542",9,8,1480639569603,"3"," static/images/o6.png"," static/images/o6.png"," ConstantA"," static/images/o1.png"," static/images/o6.png"," c"," e"," static/images/o4.png",6702
"543",9,9,1480639576121,"3"," static/images/o6.png"," static/images/o6.png"," ConstantA"," static/images/o6.png"," static/images/o6.png"," a"," a"," static/images/o6.png",5383
"544",9,10,1480639580888,"3"," static/images/o6.png"," static/images/o6.png"," ConstantA"," static/images/o5.png"," static/images/o5.png"," b"," b"," static/images/o5.png",3202
"545",9,11,1480639590987,"3"," static/images/o6.png"," static/images/o6.png"," ConstantA"," static/images/o3.png"," static/images/o6.png"," d"," e"," static/images/o4.png",8849
"553",116,8,1480639830817,"2"," static/images/o3.png"," static/images/o6.png"," ConstantB"," static/images/o1.png"," static/images/o3.png"," c"," e"," static/images/o5.png",24543
"554",116,9,1480639841510,"2"," static/images/o3.png"," static/images/o6.png"," ConstantB"," static/images/o4.png"," static/images/o3.png"," d"," e"," static/images/o5.png",5440
"555",116,10,1480639845281,"2"," static/images/o3.png"," static/images/o6.png"," ConstantB"," static/images/o6.png"," static/images/o6.png"," b"," b"," static/images/o6.png",2529
"556",116,11,1480639849339,"2"," static/images/o3.png"," static/images/o6.png"," ConstantB"," static/images/o3.png"," static/images/o3.png"," a"," b"," static/images/o6.png",3365
"564",5,8,1480639921169,"4"," static/images/o2.png"," static/images/o2.png"," Identity"," static/images/o3.png"," static/images/o2.png"," d"," d"," static/images/o3.png",9261
"565",5,9,1480639929085,"4"," static/images/o2.png"," static/images/o2.png"," Identity"," static/images/o2.png"," static/images/o2.png"," a"," a"," static/images/o2.png",6295
"566",5,10,1480639936446,"4"," static/images/o2.png"," static/images/o2.png"," Identity"," static/images/o5.png"," static/images/o2.png"," c"," c"," static/images/o5.png",6017
"567",5,11,1480639942346,"4"," static/images/o2.png"," static/images/o2.png"," Identity"," static/images/o1.png"," static/images/o1.png"," b"," b"," static/images/o1.png",4492
"575",28,8,1480640007409,"3"," static/images/o5.png"," static/images/o5.png"," ConstantA"," static/images/o5.png"," static/images/o5.png"," a"," c"," static/images/o1.png",28589
"576",28,9,1480640032874,"3"," static/images/o5.png"," static/images/o5.png"," ConstantA"," static/images/o4.png"," static/images/o4.png"," b"," e"," static/images/o2.png",24200
"577",28,10,1480640038985,"3"," static/images/o5.png"," static/images/o5.png"," ConstantA"," static/images/o1.png"," static/images/o5.png"," c"," d"," static/images/o3.png",5103
"578",28,11,1480640048582,"3"," static/images/o5.png"," static/images/o5.png"," ConstantA"," static/images/o3.png"," static/images/o5.png"," d"," c"," static/images/o1.png",8436
"586",117,8,1480640367280,"2"," static/images/o6.png"," static/images/o5.png"," ConstantB"," static/images/o6.png"," static/images/o6.png"," a"," b"," static/images/o5.png",6143
"587",117,9,1480640375948,"2"," static/images/o6.png"," static/images/o5.png"," ConstantB"," static/images/o3.png"," static/images/o6.png"," c"," e"," static/images/o2.png",7592
"588",117,10,1480640381412,"2"," static/images/o6.png"," static/images/o5.png"," ConstantB"," static/images/o1.png"," static/images/o6.png"," d"," c"," static/images/o3.png",3023
"589",117,11,1480640384271,"2"," static/images/o6.png"," static/images/o5.png"," ConstantB"," static/images/o5.png"," static/images/o5.png"," b"," b"," static/images/o5.png",2142
"597",46,8,1480641208964,"0"," static/images/o6.png"," static/images/o5.png"," Successor"," static/images/o1.png"," static/images/o6.png"," c"," d"," static/images/o2.png",9248
"598",46,9,1480641216973,"0"," static/images/o6.png"," static/images/o5.png"," Successor"," static/images/o5.png"," static/images/o5.png"," b"," c"," static/images/o1.png",6310
"599",46,10,1480641224294,"0"," static/images/o6.png"," static/images/o5.png"," Successor"," static/images/o2.png"," static/images/o6.png"," d"," e"," static/images/o3.png",4816
"600",46,11,1480641228411,"0"," static/images/o6.png"," static/images/o5.png"," Successor"," static/images/o6.png"," static/images/o6.png"," a"," b"," static/images/o5.png",2921
"608",71,8,1480641813986,"4"," static/images/o5.png"," static/images/o5.png"," Identity"," static/images/o5.png"," static/images/o5.png"," a"," a"," static/images/o5.png",5155
"609",71,9,1480641819443,"4"," static/images/o5.png"," static/images/o5.png"," Identity"," static/images/o1.png"," static/images/o1.png"," b"," b"," static/images/o1.png",3739
"610",71,10,1480641823669,"4"," static/images/o5.png"," static/images/o5.png"," Identity"," static/images/o2.png"," static/images/o5.png"," c"," c"," static/images/o2.png",3149
"611",71,11,1480641828764,"4"," static/images/o5.png"," static/images/o5.png"," Identity"," static/images/o6.png"," static/images/o5.png"," d"," d"," static/images/o6.png",3384
"619",44,8,1480642739375,"1"," static/images/o2.png"," static/images/o4.png"," Negation"," static/images/o6.png"," static/images/o2.png"," d"," c"," static/images/o5.png",4370
"620",44,9,1480642744641,"1"," static/images/o2.png"," static/images/o4.png"," Negation"," static/images/o5.png"," static/images/o2.png"," c"," d"," static/images/o6.png",3089
"621",44,10,1480642750060,"1"," static/images/o2.png"," static/images/o4.png"," Negation"," static/images/o2.png"," static/images/o2.png"," a"," b"," static/images/o4.png",3499
"622",44,11,1480642757392,"1"," static/images/o2.png"," static/images/o4.png"," Negation"," static/images/o4.png"," static/images/o4.png"," b"," a"," static/images/o2.png",5712
"630",26,8,1480642906487,"2"," static/images/o3.png"," static/images/o1.png"," ConstantB"," static/images/o3.png"," static/images/o3.png"," a"," b"," static/images/o1.png",16847
"631",26,9,1480642912595,"2"," static/images/o3.png"," static/images/o1.png"," ConstantB"," static/images/o1.png"," static/images/o1.png"," b"," b"," static/images/o1.png",4127
"632",26,10,1480642930870,"2"," static/images/o3.png"," static/images/o1.png"," ConstantB"," static/images/o6.png"," static/images/o3.png"," d"," c"," static/images/o5.png",16427
"633",26,11,1480642941811,"2"," static/images/o3.png"," static/images/o1.png"," ConstantB"," static/images/o5.png"," static/images/o3.png"," c"," e"," static/images/o2.png",8771
"641",154,8,1480643766624,"4"," static/images/o6.png"," static/images/o6.png"," Identity"," static/images/o5.png"," static/images/o6.png"," c"," c"," static/images/o5.png",2232
"642",154,9,1480643771965,"4"," static/images/o6.png"," static/images/o6.png"," Identity"," static/images/o3.png"," static/images/o6.png"," d"," d"," static/images/o3.png",3215
"643",154,10,1480643775391,"4"," static/images/o6.png"," static/images/o6.png"," Identity"," static/images/o6.png"," static/images/o6.png"," a"," a"," static/images/o6.png",2106
"644",154,11,1480643778864,"4"," static/images/o6.png"," static/images/o6.png"," Identity"," static/images/o1.png"," static/images/o1.png"," b"," b"," static/images/o1.png",2094
"652",10,8,1480644275754,"3"," static/images/o3.png"," static/images/o3.png"," ConstantA"," static/images/o5.png"," static/images/o3.png"," d"," a"," static/images/o3.png",2579
"653",10,9,1480644281227,"3"," static/images/o3.png"," static/images/o3.png"," ConstantA"," static/images/o1.png"," static/images/o1.png"," b"," a"," static/images/o3.png",4548
"654",10,10,1480644285035,"3"," static/images/o3.png"," static/images/o3.png"," ConstantA"," static/images/o6.png"," static/images/o3.png"," c"," a"," static/images/o3.png",2423
"655",10,11,1480644288425,"3"," static/images/o3.png"," static/images/o3.png"," ConstantA"," static/images/o3.png"," static/images/o3.png"," a"," a"," static/images/o3.png",2232
"663",73,8,1480644424956,"1"," static/images/o3.png"," static/images/o1.png"," Negation"," static/images/o3.png"," static/images/o3.png"," a"," c"," static/images/o4.png",11988
"664",73,9,1480644434052,"1"," static/images/o3.png"," static/images/o1.png"," Negation"," static/images/o1.png"," static/images/o1.png"," b"," a"," static/images/o3.png",7445
"665",73,10,1480644439696,"1"," static/images/o3.png"," static/images/o1.png"," Negation"," static/images/o4.png"," static/images/o3.png"," c"," d"," static/images/o2.png",4204
"666",73,11,1480644448592,"1"," static/images/o3.png"," static/images/o1.png"," Negation"," static/images/o2.png"," static/images/o3.png"," d"," c"," static/images/o4.png",8166
"674",54,8,1480644697996,"0"," static/images/o2.png"," static/images/o6.png"," Successor"," static/images/o6.png"," static/images/o6.png"," b"," e"," static/images/o4.png",12663
"675",54,9,1480644704886,"0"," static/images/o2.png"," static/images/o6.png"," Successor"," static/images/o1.png"," static/images/o2.png"," c"," d"," static/images/o5.png",4821
"676",54,10,1480644709708,"0"," static/images/o2.png"," static/images/o6.png"," Successor"," static/images/o5.png"," static/images/o2.png"," d"," e"," static/images/o4.png",3874
"677",54,11,1480644716632,"0"," static/images/o2.png"," static/images/o6.png"," Successor"," static/images/o2.png"," static/images/o2.png"," a"," b"," static/images/o6.png",5115
"685",23,8,1480645109608,"3"," static/images/o6.png"," static/images/o6.png"," ConstantA"," static/images/o6.png"," static/images/o6.png"," a"," c"," static/images/o5.png",13703
"686",23,9,1480645138300,"3"," static/images/o6.png"," static/images/o6.png"," ConstantA"," static/images/o2.png"," static/images/o2.png"," b"," d"," static/images/o3.png",11390
"687",23,10,1480645151348,"3"," static/images/o6.png"," static/images/o6.png"," ConstantA"," static/images/o5.png"," static/images/o6.png"," c"," d"," static/images/o3.png",7232
"688",23,11,1480645158116,"3"," static/images/o6.png"," static/images/o6.png"," ConstantA"," static/images/o3.png"," static/images/o6.png"," d"," e"," static/images/o4.png",5371
"696",35,8,1480645773598,"1"," static/images/o5.png"," static/images/o3.png"," Negation"," static/images/o1.png"," static/images/o5.png"," d"," c"," static/images/o6.png",27772
"697",35,9,1480645781950,"1"," static/images/o5.png"," static/images/o3.png"," Negation"," static/images/o5.png"," static/images/o5.png"," a"," b"," static/images/o3.png",7735
"698",35,10,1480645783801,"1"," static/images/o5.png"," static/images/o3.png"," Negation"," static/images/o3.png"," static/images/o3.png"," b"," a"," static/images/o5.png",1479
"699",35,11,1480645786676,"1"," static/images/o5.png"," static/images/o3.png"," Negation"," static/images/o6.png"," static/images/o5.png"," c"," d"," static/images/o1.png",2259
"707",57,8,1480646218471,"2"," static/images/o5.png"," static/images/o4.png"," ConstantB"," static/images/o6.png"," static/images/o5.png"," c"," a"," static/images/o5.png",29043
"708",57,9,1480646241176,"2"," static/images/o5.png"," static/images/o4.png"," ConstantB"," static/images/o4.png"," static/images/o4.png"," b"," b"," static/images/o4.png",19857
"709",57,10,1480646249236,"2"," static/images/o5.png"," static/images/o4.png"," ConstantB"," static/images/o1.png"," static/images/o5.png"," d"," e"," static/images/o3.png",2952
"710",57,11,1480646253993,"2"," static/images/o5.png"," static/images/o4.png"," ConstantB"," static/images/o5.png"," static/images/o5.png"," a"," b"," static/images/o4.png",3136
"718",130,8,1480646324683,"4"," static/images/o6.png"," static/images/o6.png"," Identity"," static/images/o2.png"," static/images/o2.png"," b"," b"," static/images/o2.png",3561
"719",130,9,1480646328707,"4"," static/images/o6.png"," static/images/o6.png"," Identity"," static/images/o6.png"," static/images/o6.png"," a"," a"," static/images/o6.png",2368
"720",130,10,1480646332806,"4"," static/images/o6.png"," static/images/o6.png"," Identity"," static/images/o1.png"," static/images/o6.png"," d"," d"," static/images/o1.png",3033
"721",130,11,1480646335449,"4"," static/images/o6.png"," static/images/o6.png"," Identity"," static/images/o4.png"," static/images/o6.png"," c"," c"," static/images/o4.png",1445
"729",21,8,1480647036102,"0"," static/images/o1.png"," static/images/o5.png"," Successor"," static/images/o1.png"," static/images/o1.png"," a"," b"," static/images/o5.png",21178
"730",21,9,1480647056731,"0"," static/images/o1.png"," static/images/o5.png"," Successor"," static/images/o6.png"," static/images/o1.png"," c"," a"," static/images/o1.png",18543
"731",21,10,1480647064897,"0"," static/images/o1.png"," static/images/o5.png"," Successor"," static/images/o3.png"," static/images/o1.png"," d"," e"," static/images/o2.png",6801
"732",21,11,1480647070412,"0"," static/images/o1.png"," static/images/o5.png"," Successor"," static/images/o5.png"," static/images/o5.png"," b"," c"," static/images/o6.png",3533
"740",84,8,1480647723637,"2"," static/images/o6.png"," static/images/o4.png"," ConstantB"," static/images/o5.png"," static/images/o6.png"," d"," b"," static/images/o4.png",15100
"741",84,9,1480647731703,"2"," static/images/o6.png"," static/images/o4.png"," ConstantB"," static/images/o6.png"," static/images/o6.png"," a"," b"," static/images/o4.png",6739
"742",84,10,1480647740582,"2"," static/images/o6.png"," static/images/o4.png"," ConstantB"," static/images/o1.png"," static/images/o6.png"," c"," b"," static/images/o4.png",6507
"743",84,11,1480647746393,"2"," static/images/o6.png"," static/images/o4.png"," ConstantB"," static/images/o4.png"," static/images/o4.png"," b"," b"," static/images/o4.png",4010
"751",52,8,1480648115115,"1"," static/images/o6.png"," static/images/o2.png"," Negation"," static/images/o5.png"," static/images/o6.png"," c"," d"," static/images/o1.png",9780
"752",52,9,1480648122237,"1"," static/images/o6.png"," static/images/o2.png"," Negation"," static/images/o6.png"," static/images/o6.png"," a"," b"," static/images/o2.png",3839
"753",52,10,1480648126548,"1"," static/images/o6.png"," static/images/o2.png"," Negation"," static/images/o2.png"," static/images/o2.png"," b"," a"," static/images/o6.png",2539
"754",52,11,1480648132329,"1"," static/images/o6.png"," static/images/o2.png"," Negation"," static/images/o1.png"," static/images/o6.png"," d"," c"," static/images/o5.png",4478
"762",87,8,1480648230314,"3"," static/images/o5.png"," static/images/o5.png"," ConstantA"," static/images/o3.png"," static/images/o3.png"," b"," a"," static/images/o5.png",9787
"763",87,9,1480648237484,"3"," static/images/o5.png"," static/images/o5.png"," ConstantA"," static/images/o4.png"," static/images/o5.png"," d"," e"," static/images/o1.png",5782
"764",87,10,1480648248352,"3"," static/images/o5.png"," static/images/o5.png"," ConstantA"," static/images/o6.png"," static/images/o5.png"," c"," d"," static/images/o4.png",10069
"765",87,11,1480648253203,"3"," static/images/o5.png"," static/images/o5.png"," ConstantA"," static/images/o5.png"," static/images/o5.png"," a"," a"," static/images/o5.png",4307
"773",29,8,1480648287742,"4"," static/images/o3.png"," static/images/o3.png"," Identity"," static/images/o6.png"," static/images/o6.png"," b"," b"," static/images/o6.png",6820
"774",29,9,1480648293986,"4"," static/images/o3.png"," static/images/o3.png"," Identity"," static/images/o1.png"," static/images/o3.png"," c"," c"," static/images/o1.png",3991
"775",29,10,1480648298538,"4"," static/images/o3.png"," static/images/o3.png"," Identity"," static/images/o4.png"," static/images/o3.png"," d"," c"," static/images/o1.png",3334
"776",29,11,1480648306858,"4"," static/images/o3.png"," static/images/o3.png"," Identity"," static/images/o3.png"," static/images/o3.png"," a"," a"," static/images/o3.png",4536
"784",91,8,1480648341146,"0"," static/images/o4.png"," static/images/o3.png"," Successor"," static/images/o3.png"," static/images/o3.png"," b"," c"," static/images/o5.png",6899
"785",91,9,1480648347347,"0"," static/images/o4.png"," static/images/o3.png"," Successor"," static/images/o4.png"," static/images/o4.png"," a"," b"," static/images/o3.png",3407
"786",91,10,1480648357654,"0"," static/images/o4.png"," static/images/o3.png"," Successor"," static/images/o6.png"," static/images/o4.png"," d"," e"," static/images/o2.png",8954
"787",91,11,1480648361612,"0"," static/images/o4.png"," static/images/o3.png"," Successor"," static/images/o5.png"," static/images/o4.png"," c"," d"," static/images/o6.png",2586
"795",69,8,1480648579640,"0"," static/images/o3.png"," static/images/o5.png"," Successor"," static/images/o5.png"," static/images/o5.png"," b"," c"," static/images/o1.png",5928
"796",69,9,1480648594584,"0"," static/images/o3.png"," static/images/o5.png"," Successor"," static/images/o1.png"," static/images/o3.png"," c"," d"," static/images/o4.png",13336
"797",69,10,1480648601343,"0"," static/images/o3.png"," static/images/o5.png"," Successor"," static/images/o4.png"," static/images/o3.png"," d"," e"," static/images/o6.png",5256
"798",69,11,1480648605424,"0"," static/images/o3.png"," static/images/o5.png"," Successor"," static/images/o3.png"," static/images/o3.png"," a"," b"," static/images/o5.png",3272
"806",85,8,1480648989425,"3"," static/images/o5.png"," static/images/o5.png"," ConstantA"," static/images/o5.png"," static/images/o5.png"," a"," e"," static/images/o2.png",36603
"807",85,9,1480649005964,"3"," static/images/o5.png"," static/images/o5.png"," ConstantA"," static/images/o4.png"," static/images/o4.png"," b"," d"," static/images/o1.png",13315
"808",85,10,1480649034761,"3"," static/images/o5.png"," static/images/o5.png"," ConstantA"," static/images/o6.png"," static/images/o5.png"," c"," b"," static/images/o4.png",22791
"809",85,11,1480649046437,"3"," static/images/o5.png"," static/images/o5.png"," ConstantA"," static/images/o1.png"," static/images/o5.png"," d"," b"," static/images/o4.png",8620
"817",11,8,1480648754222,"1"," static/images/o6.png"," static/images/o2.png"," Negation"," static/images/o1.png"," static/images/o6.png"," c"," d"," static/images/o5.png",8946
"818",11,9,1480648762127,"1"," static/images/o6.png"," static/images/o2.png"," Negation"," static/images/o2.png"," static/images/o2.png"," b"," a"," static/images/o6.png",5753
"819",11,10,1480648766596,"1"," static/images/o6.png"," static/images/o2.png"," Negation"," static/images/o5.png"," static/images/o6.png"," d"," c"," static/images/o1.png",2893
"820",11,11,1480648770013,"1"," static/images/o6.png"," static/images/o2.png"," Negation"," static/images/o6.png"," static/images/o6.png"," a"," b"," static/images/o2.png",2085
"828",38,8,1480648783867,"4"," static/images/o3.png"," static/images/o3.png"," Identity"," static/images/o1.png"," static/images/o3.png"," c"," c"," static/images/o1.png",4440
"829",38,9,1480648788644,"4"," static/images/o3.png"," static/images/o3.png"," Identity"," static/images/o4.png"," static/images/o4.png"," b"," b"," static/images/o4.png",3305
"830",38,10,1480648793892,"4"," static/images/o3.png"," static/images/o3.png"," Identity"," static/images/o3.png"," static/images/o3.png"," a"," a"," static/images/o3.png",4066
"831",38,11,1480648798938,"4"," static/images/o3.png"," static/images/o3.png"," Identity"," static/images/o2.png"," static/images/o3.png"," d"," d"," static/images/o2.png",3695
"839",146,8,1480649730133,"2"," static/images/o2.png"," static/images/o4.png"," ConstantB"," static/images/o5.png"," static/images/o2.png"," c"," c"," static/images/o5.png",15054
"840",146,9,1480649739017,"2"," static/images/o2.png"," static/images/o4.png"," ConstantB"," static/images/o4.png"," static/images/o4.png"," b"," c"," static/images/o5.png",4150
"841",146,10,1480649755141,"2"," static/images/o2.png"," static/images/o4.png"," ConstantB"," static/images/o6.png"," static/images/o2.png"," d"," c"," static/images/o5.png",11172
"842",146,11,1480649769024,"2"," static/images/o2.png"," static/images/o4.png"," ConstantB"," static/images/o2.png"," static/images/o2.png"," a"," e"," static/images/o3.png",11820
"850",98,8,1480649841962,"2"," static/images/o6.png"," static/images/o2.png"," ConstantB"," static/images/o6.png"," static/images/o6.png"," a"," b"," static/images/o2.png",18370
"851",98,9,1480649871295,"2"," static/images/o6.png"," static/images/o2.png"," ConstantB"," static/images/o5.png"," static/images/o6.png"," d"," e"," static/images/o4.png",27118
"852",98,10,1480649879450,"2"," static/images/o6.png"," static/images/o2.png"," ConstantB"," static/images/o2.png"," static/images/o2.png"," b"," b"," static/images/o2.png",6419
"853",98,11,1480649889423,"2"," static/images/o6.png"," static/images/o2.png"," ConstantB"," static/images/o1.png"," static/images/o6.png"," c"," a"," static/images/o6.png",6441
"861",106,8,1480650106285,"0"," static/images/o1.png"," static/images/o5.png"," Successor"," static/images/o6.png"," static/images/o1.png"," c"," d"," static/images/o4.png",34232
"862",106,9,1480650121342,"0"," static/images/o1.png"," static/images/o5.png"," Successor"," static/images/o1.png"," static/images/o1.png"," a"," b"," static/images/o5.png",12761
"863",106,10,1480650130566,"0"," static/images/o1.png"," static/images/o5.png"," Successor"," static/images/o5.png"," static/images/o5.png"," b"," c"," static/images/o6.png",6882
"864",106,11,1480650138219,"0"," static/images/o1.png"," static/images/o5.png"," Successor"," static/images/o4.png"," static/images/o1.png"," d"," a"," static/images/o1.png",5945
"872",107,8,1480650500337,"1"," static/images/o5.png"," static/images/o3.png"," Negation"," static/images/o5.png"," static/images/o5.png"," a"," b"," static/images/o3.png",8727
"873",107,9,1480650507627,"1"," static/images/o5.png"," static/images/o3.png"," Negation"," static/images/o4.png"," static/images/o5.png"," d"," c"," static/images/o6.png",5196
"874",107,10,1480650514662,"1"," static/images/o5.png"," static/images/o3.png"," Negation"," static/images/o3.png"," static/images/o3.png"," b"," a"," static/images/o5.png",4676
"875",107,11,1480650518905,"1"," static/images/o5.png"," static/images/o3.png"," Negation"," static/images/o6.png"," static/images/o5.png"," c"," d"," static/images/o4.png",2985
"883",110,8,1480650736284,"3"," static/images/o5.png"," static/images/o5.png"," ConstantA"," static/images/o4.png"," static/images/o5.png"," d"," c"," static/images/o1.png",4158
"884",110,9,1480650751368,"3"," static/images/o5.png"," static/images/o5.png"," ConstantA"," static/images/o1.png"," static/images/o5.png"," c"," e"," static/images/o6.png",7539
"885",110,10,1480650759372,"3"," static/images/o5.png"," static/images/o5.png"," ConstantA"," static/images/o2.png"," static/images/o2.png"," b"," a"," static/images/o5.png",5416
"886",110,11,1480650764574,"3"," static/images/o5.png"," static/images/o5.png"," ConstantA"," static/images/o5.png"," static/images/o5.png"," a"," a"," static/images/o5.png",2692
"894",24,8,1480650957259,"4"," static/images/o5.png"," static/images/o5.png"," Identity"," static/images/o6.png"," static/images/o5.png"," c"," e"," static/images/o3.png",24606
"895",24,9,1480650968221,"4"," static/images/o5.png"," static/images/o5.png"," Identity"," static/images/o5.png"," static/images/o5.png"," a"," a"," static/images/o5.png",8964
"896",24,10,1480650973484,"4"," static/images/o5.png"," static/images/o5.png"," Identity"," static/images/o4.png"," static/images/o4.png"," b"," b"," static/images/o4.png",2668
"897",24,11,1480650979009,"4"," static/images/o5.png"," static/images/o5.png"," Identity"," static/images/o2.png"," static/images/o5.png"," d"," d"," static/images/o2.png",2606
"905",68,8,1480650908929,"1"," static/images/o4.png"," static/images/o5.png"," Negation"," static/images/o2.png"," static/images/o4.png"," d"," c"," static/images/o6.png",5060
"906",68,9,1480650913298,"1"," static/images/o4.png"," static/images/o5.png"," Negation"," static/images/o4.png"," static/images/o4.png"," a"," b"," static/images/o5.png",3472
"907",68,10,1480650917472,"1"," static/images/o4.png"," static/images/o5.png"," Negation"," static/images/o5.png"," static/images/o5.png"," b"," a"," static/images/o4.png",2315
"908",68,11,1480650920906,"1"," static/images/o4.png"," static/images/o5.png"," Negation"," static/images/o6.png"," static/images/o4.png"," c"," d"," static/images/o2.png",2326
"916",45,8,1480651124252,"4"," static/images/o4.png"," static/images/o4.png"," Identity"," static/images/o1.png"," static/images/o4.png"," c"," d"," static/images/o2.png",11585
"917",45,9,1480651138194,"4"," static/images/o4.png"," static/images/o4.png"," Identity"," static/images/o4.png"," static/images/o4.png"," a"," c"," static/images/o1.png",11672
"918",45,10,1480651152987,"4"," static/images/o4.png"," static/images/o4.png"," Identity"," static/images/o5.png"," static/images/o5.png"," b"," c"," static/images/o1.png",13128
"919",45,11,1480651161474,"4"," static/images/o4.png"," static/images/o4.png"," Identity"," static/images/o2.png"," static/images/o4.png"," d"," e"," static/images/o6.png",7582
"927",39,8,1480650749734,"2"," static/images/o2.png"," static/images/o5.png"," ConstantB"," static/images/o6.png"," static/images/o2.png"," d"," b"," static/images/o5.png",4319
"928",39,9,1480650754886,"2"," static/images/o2.png"," static/images/o5.png"," ConstantB"," static/images/o5.png"," static/images/o5.png"," b"," b"," static/images/o5.png",3703
"929",39,10,1480650759521,"2"," static/images/o2.png"," static/images/o5.png"," ConstantB"," static/images/o2.png"," static/images/o2.png"," a"," b"," static/images/o5.png",3102
"930",39,11,1480650768121,"2"," static/images/o2.png"," static/images/o5.png"," ConstantB"," static/images/o1.png"," static/images/o2.png"," c"," b"," static/images/o5.png",7078
"938",92,8,1480695288880,"3"," static/images/o6.png"," static/images/o6.png"," ConstantA"," static/images/o6.png"," static/images/o6.png"," a"," a"," static/images/o6.png",9836
"939",92,9,1480695296111,"3"," static/images/o6.png"," static/images/o6.png"," ConstantA"," static/images/o5.png"," static/images/o6.png"," c"," e"," static/images/o4.png",6462
"940",92,10,1480695300945,"3"," static/images/o6.png"," static/images/o6.png"," ConstantA"," static/images/o3.png"," static/images/o6.png"," d"," c"," static/images/o5.png",3341
"941",92,11,1480695303608,"3"," static/images/o6.png"," static/images/o6.png"," ConstantA"," static/images/o2.png"," static/images/o2.png"," b"," a"," static/images/o6.png",1841
"949",141,8,1480695504001,"0"," static/images/o5.png"," static/images/o3.png"," Successor"," static/images/o6.png"," static/images/o5.png"," d"," e"," static/images/o1.png",21786
"950",141,9,1480695513102,"0"," static/images/o5.png"," static/images/o3.png"," Successor"," static/images/o3.png"," static/images/o3.png"," b"," c"," static/images/o4.png",6678
"951",141,10,1480695519193,"0"," static/images/o5.png"," static/images/o3.png"," Successor"," static/images/o4.png"," static/images/o5.png"," c"," a"," static/images/o5.png",4198
"952",141,11,1480695530730,"0"," static/images/o5.png"," static/images/o3.png"," Successor"," static/images/o5.png"," static/images/o5.png"," a"," d"," static/images/o6.png",9282
"960",103,8,1480695692872,"3"," static/images/o5.png"," static/images/o5.png"," ConstantA"," static/images/o1.png"," static/images/o1.png"," b"," c"," static/images/o3.png",3795
"961",103,9,1480695710441,"3"," static/images/o5.png"," static/images/o5.png"," ConstantA"," static/images/o5.png"," static/images/o5.png"," a"," a"," static/images/o5.png",6333
"962",103,10,1480695717868,"3"," static/images/o5.png"," static/images/o5.png"," ConstantA"," static/images/o3.png"," static/images/o5.png"," c"," e"," static/images/o6.png",5362
"963",103,11,1480695728521,"3"," static/images/o5.png"," static/images/o5.png"," ConstantA"," static/images/o4.png"," static/images/o5.png"," d"," c"," static/images/o3.png",9819
"971",74,8,1480695822754,"0"," static/images/o5.png"," static/images/o4.png"," Successor"," static/images/o1.png"," static/images/o5.png"," d"," b"," static/images/o4.png",9964
"972",74,9,1480695834209,"0"," static/images/o5.png"," static/images/o4.png"," Successor"," static/images/o6.png"," static/images/o5.png"," c"," d"," static/images/o1.png",9772
"973",74,10,1480695848511,"0"," static/images/o5.png"," static/images/o4.png"," Successor"," static/images/o5.png"," static/images/o5.png"," a"," b"," static/images/o4.png",13279
"974",74,11,1480695854860,"0"," static/images/o5.png"," static/images/o4.png"," Successor"," static/images/o4.png"," static/images/o4.png"," b"," c"," static/images/o6.png",5216
"982",99,8,1480697164686,"4"," static/images/o4.png"," static/images/o4.png"," Identity"," static/images/o4.png"," static/images/o4.png"," a"," a"," static/images/o4.png",10951
"983",99,9,1480697175976,"4"," static/images/o4.png"," static/images/o4.png"," Identity"," static/images/o3.png"," static/images/o4.png"," d"," d"," static/images/o3.png",7820
"984",99,10,1480697182858,"4"," static/images/o4.png"," static/images/o4.png"," Identity"," static/images/o6.png"," static/images/o6.png"," b"," b"," static/images/o6.png",3521
"985",99,11,1480697190531,"4"," static/images/o4.png"," static/images/o4.png"," Identity"," static/images/o5.png"," static/images/o4.png"," c"," c"," static/images/o5.png",5635
"993",153,8,1480697877256,"1"," static/images/o4.png"," static/images/o6.png"," Negation"," static/images/o6.png"," static/images/o6.png"," b"," b"," static/images/o6.png",4170
"994",153,9,1480697886971,"1"," static/images/o4.png"," static/images/o6.png"," Negation"," static/images/o1.png"," static/images/o4.png"," d"," d"," static/images/o1.png",5460
"995",153,10,1480697892990,"1"," static/images/o4.png"," static/images/o6.png"," Negation"," static/images/o5.png"," static/images/o4.png"," c"," c"," static/images/o5.png",4250
"996",153,11,1480697898679,"1"," static/images/o4.png"," static/images/o6.png"," Negation"," static/images/o4.png"," static/images/o4.png"," a"," a"," static/images/o4.png",4292
"1004",59,8,1480698484760,"2"," static/images/o5.png"," static/images/o3.png"," ConstantB"," static/images/o3.png"," static/images/o3.png"," b"," c"," static/images/o6.png",24885
"1005",59,9,1480698498417,"2"," static/images/o5.png"," static/images/o3.png"," ConstantB"," static/images/o4.png"," static/images/o5.png"," d"," e"," static/images/o2.png",11707
"1006",59,10,1480698513671,"2"," static/images/o5.png"," static/images/o3.png"," ConstantB"," static/images/o5.png"," static/images/o5.png"," a"," b"," static/images/o3.png",12335
"1007",59,11,1480698522429,"2"," static/images/o5.png"," static/images/o3.png"," ConstantB"," static/images/o6.png"," static/images/o5.png"," c"," a"," static/images/o5.png",7574
"1015",51,8,1480699219497,"0"," static/images/o4.png"," static/images/o1.png"," Successor"," static/images/o1.png"," static/images/o1.png"," b"," e"," static/images/o5.png",16861
"1016",51,9,1480699225086,"0"," static/images/o4.png"," static/images/o1.png"," Successor"," static/images/o4.png"," static/images/o4.png"," a"," b"," static/images/o1.png",3336
"1017",51,10,1480699230593,"0"," static/images/o4.png"," static/images/o1.png"," Successor"," static/images/o3.png"," static/images/o4.png"," c"," b"," static/images/o1.png",4005
"1018",51,11,1480699236435,"0"," static/images/o4.png"," static/images/o1.png"," Successor"," static/images/o2.png"," static/images/o4.png"," d"," e"," static/images/o5.png",4446
"1026",122,8,1480700063602,"4"," static/images/o2.png"," static/images/o2.png"," Identity"," static/images/o4.png"," static/images/o2.png"," c"," c"," static/images/o4.png",4543
"1027",122,9,1480700069073,"4"," static/images/o2.png"," static/images/o2.png"," Identity"," static/images/o2.png"," static/images/o2.png"," a"," a"," static/images/o2.png",4055
"1028",122,10,1480700072833,"4"," static/images/o2.png"," static/images/o2.png"," Identity"," static/images/o5.png"," static/images/o5.png"," b"," b"," static/images/o5.png",2376
"1029",122,11,1480700076713,"4"," static/images/o2.png"," static/images/o2.png"," Identity"," static/images/o3.png"," static/images/o2.png"," d"," d"," static/images/o3.png",2000
"1037",96,8,1480700770425,"3"," static/images/o4.png"," static/images/o4.png"," ConstantA"," static/images/o5.png"," static/images/o5.png"," b"," e"," static/images/o6.png",41248
"1038",96,9,1480700795010,"3"," static/images/o4.png"," static/images/o4.png"," ConstantA"," static/images/o2.png"," static/images/o4.png"," c"," c"," static/images/o2.png",23084
"1039",96,10,1480700815096,"3"," static/images/o4.png"," static/images/o4.png"," ConstantA"," static/images/o4.png"," static/images/o4.png"," a"," a"," static/images/o4.png",13777
"1040",96,11,1480700822461,"3"," static/images/o4.png"," static/images/o4.png"," ConstantA"," static/images/o3.png"," static/images/o4.png"," d"," d"," static/images/o3.png",5157
"1048",142,8,1480700792387,"2"," static/images/o1.png"," static/images/o5.png"," ConstantB"," static/images/o1.png"," static/images/o1.png"," a"," c"," static/images/o3.png",14490
"1049",142,9,1480700802500,"2"," static/images/o1.png"," static/images/o5.png"," ConstantB"," static/images/o5.png"," static/images/o5.png"," b"," a"," static/images/o1.png",8789
"1050",142,10,1480700815621,"2"," static/images/o1.png"," static/images/o5.png"," ConstantB"," static/images/o3.png"," static/images/o1.png"," c"," e"," static/images/o4.png",11521
"1051",142,11,1480700825847,"2"," static/images/o1.png"," static/images/o5.png"," ConstantB"," static/images/o6.png"," static/images/o1.png"," d"," a"," static/images/o1.png",8916
"1059",31,8,1480702079153,"1"," static/images/o1.png"," static/images/o3.png"," Negation"," static/images/o1.png"," static/images/o1.png"," a"," c"," static/images/o5.png",7768
"1060",31,9,1480702085706,"1"," static/images/o1.png"," static/images/o3.png"," Negation"," static/images/o5.png"," static/images/o1.png"," c"," d"," static/images/o2.png",4425
"1061",31,10,1480702093647,"1"," static/images/o1.png"," static/images/o3.png"," Negation"," static/images/o2.png"," static/images/o1.png"," d"," a"," static/images/o1.png",5390
"1062",31,11,1480702100497,"1"," static/images/o1.png"," static/images/o3.png"," Negation"," static/images/o3.png"," static/images/o3.png"," b"," a"," static/images/o1.png",4042
"1070",16,8,1480703761149,"3"," static/images/o5.png"," static/images/o5.png"," ConstantA"," static/images/o4.png"," static/images/o4.png"," b"," e"," static/images/o2.png",3035
"1071",16,9,1480703770653,"3"," static/images/o5.png"," static/images/o5.png"," ConstantA"," static/images/o5.png"," static/images/o5.png"," a"," e"," static/images/o2.png",3962
"1072",16,10,1480703777556,"3"," static/images/o5.png"," static/images/o5.png"," ConstantA"," static/images/o6.png"," static/images/o5.png"," d"," d"," static/images/o6.png",4915
"1073",16,11,1480703783194,"3"," static/images/o5.png"," static/images/o5.png"," ConstantA"," static/images/o3.png"," static/images/o5.png"," c"," b"," static/images/o4.png",3520
"1081",25,8,1480704010040,"1"," static/images/o2.png"," static/images/o4.png"," Negation"," static/images/o4.png"," static/images/o4.png"," b"," a"," static/images/o2.png",9084
"1082",25,9,1480704020518,"1"," static/images/o2.png"," static/images/o4.png"," Negation"," static/images/o1.png"," static/images/o2.png"," c"," b"," static/images/o4.png",7946
"1083",25,10,1480704026452,"1"," static/images/o2.png"," static/images/o4.png"," Negation"," static/images/o5.png"," static/images/o2.png"," d"," b"," static/images/o4.png",4384
"1084",25,11,1480704030998,"1"," static/images/o2.png"," static/images/o4.png"," Negation"," static/images/o2.png"," static/images/o2.png"," a"," d"," static/images/o5.png",3279
"1092",152,8,1480704315665,"4"," static/images/o5.png"," static/images/o5.png"," Identity"," static/images/o1.png"," static/images/o1.png"," b"," b"," static/images/o1.png",4163
"1093",152,9,1480704326521,"4"," static/images/o5.png"," static/images/o5.png"," Identity"," static/images/o3.png"," static/images/o5.png"," d"," d"," static/images/o3.png",5518
"1094",152,10,1480704335951,"4"," static/images/o5.png"," static/images/o5.png"," Identity"," static/images/o5.png"," static/images/o5.png"," a"," a"," static/images/o5.png",7821
"1095",152,11,1480704344103,"4"," static/images/o5.png"," static/images/o5.png"," Identity"," static/images/o6.png"," static/images/o5.png"," c"," c"," static/images/o6.png",4892
"1103",90,8,1480706276191,"2"," static/images/o1.png"," static/images/o2.png"," ConstantB"," static/images/o4.png"," static/images/o1.png"," c"," a"," static/images/o1.png",5334
"1104",90,9,1480706289670,"2"," static/images/o1.png"," static/images/o2.png"," ConstantB"," static/images/o3.png"," static/images/o1.png"," d"," e"," static/images/o5.png",11291
"1105",90,10,1480706297946,"2"," static/images/o1.png"," static/images/o2.png"," ConstantB"," static/images/o2.png"," static/images/o2.png"," b"," b"," static/images/o2.png",6595
"1106",90,11,1480706305333,"2"," static/images/o1.png"," static/images/o2.png"," ConstantB"," static/images/o1.png"," static/images/o1.png"," a"," b"," static/images/o2.png",4762
"1114",128,8,1480711713603,"0"," static/images/o1.png"," static/images/o4.png"," Successor"," static/images/o1.png"," static/images/o1.png"," a"," b"," static/images/o4.png",11120
"1115",128,9,1480711722243,"0"," static/images/o1.png"," static/images/o4.png"," Successor"," static/images/o3.png"," static/images/o1.png"," c"," d"," static/images/o2.png",7198
"1116",128,10,1480711730916,"0"," static/images/o1.png"," static/images/o4.png"," Successor"," static/images/o4.png"," static/images/o4.png"," b"," c"," static/images/o3.png",7931
"1117",128,11,1480711734868,"0"," static/images/o1.png"," static/images/o4.png"," Successor"," static/images/o2.png"," static/images/o1.png"," d"," e"," static/images/o5.png",3299
"1125",150,8,1480711623038,"4"," static/images/o5.png"," static/images/o5.png"," Identity"," static/images/o1.png"," static/images/o5.png"," c"," c"," static/images/o1.png",5945
"1126",150,9,1480711627122,"4"," static/images/o5.png"," static/images/o5.png"," Identity"," static/images/o3.png"," static/images/o3.png"," b"," b"," static/images/o3.png",3207
"1127",150,10,1480711629584,"4"," static/images/o5.png"," static/images/o5.png"," Identity"," static/images/o2.png"," static/images/o5.png"," d"," d"," static/images/o2.png",1775
"1128",150,11,1480711631813,"4"," static/images/o5.png"," static/images/o5.png"," Identity"," static/images/o5.png"," static/images/o5.png"," a"," a"," static/images/o5.png",1661
"1136",49,8,1480711719035,"1"," static/images/o1.png"," static/images/o6.png"," Negation"," static/images/o6.png"," static/images/o6.png"," b"," a"," static/images/o1.png",8603
"1137",49,9,1480711727326,"1"," static/images/o1.png"," static/images/o6.png"," Negation"," static/images/o2.png"," static/images/o1.png"," c"," a"," static/images/o1.png",6878
"1138",49,10,1480711734253,"1"," static/images/o1.png"," static/images/o6.png"," Negation"," static/images/o1.png"," static/images/o1.png"," a"," b"," static/images/o6.png",5929
"1139",49,11,1480711742063,"1"," static/images/o1.png"," static/images/o6.png"," Negation"," static/images/o5.png"," static/images/o1.png"," d"," a"," static/images/o1.png",6695
"1147",156,8,1480711808570,"0"," static/images/o4.png"," static/images/o2.png"," Successor"," static/images/o4.png"," static/images/o4.png"," a"," d"," static/images/o5.png",5862
"1148",156,9,1480711816499,"0"," static/images/o4.png"," static/images/o2.png"," Successor"," static/images/o6.png"," static/images/o4.png"," c"," e"," static/images/o3.png",6359
"1149",156,10,1480711822709,"0"," static/images/o4.png"," static/images/o2.png"," Successor"," static/images/o5.png"," static/images/o4.png"," d"," a"," static/images/o4.png",4928
"1150",156,11,1480711826827,"0"," static/images/o4.png"," static/images/o2.png"," Successor"," static/images/o2.png"," static/images/o2.png"," b"," c"," static/images/o6.png",3424
"1158",6,8,1480711865938,"2"," static/images/o1.png"," static/images/o5.png"," ConstantB"," static/images/o5.png"," static/images/o5.png"," b"," a"," static/images/o1.png",12006
"1159",6,9,1480711877271,"2"," static/images/o1.png"," static/images/o5.png"," ConstantB"," static/images/o1.png"," static/images/o1.png"," a"," b"," static/images/o5.png",10689
"1160",6,10,1480711887539,"2"," static/images/o1.png"," static/images/o5.png"," ConstantB"," static/images/o2.png"," static/images/o1.png"," d"," e"," static/images/o6.png",9206
"1161",6,11,1480711896122,"2"," static/images/o1.png"," static/images/o5.png"," ConstantB"," static/images/o4.png"," static/images/o1.png"," c"," b"," static/images/o5.png",7274
"1169",120,8,1480712036961,"2"," static/images/o3.png"," static/images/o4.png"," ConstantB"," static/images/o6.png"," static/images/o3.png"," c"," a"," static/images/o3.png",15863
"1170",120,9,1480712049280,"2"," static/images/o3.png"," static/images/o4.png"," ConstantB"," static/images/o1.png"," static/images/o3.png"," d"," e"," static/images/o2.png",10608
"1171",120,10,1480712061842,"2"," static/images/o3.png"," static/images/o4.png"," ConstantB"," static/images/o3.png"," static/images/o3.png"," a"," b"," static/images/o4.png",9458
"1172",120,11,1480712068944,"2"," static/images/o3.png"," static/images/o4.png"," ConstantB"," static/images/o4.png"," static/images/o4.png"," b"," b"," static/images/o4.png",5521
"1180",121,8,1480712061894,"1"," static/images/o2.png"," static/images/o6.png"," Negation"," static/images/o5.png"," static/images/o2.png"," d"," c"," static/images/o4.png",3543
"1181",121,9,1480712065758,"1"," static/images/o2.png"," static/images/o6.png"," Negation"," static/images/o2.png"," static/images/o2.png"," a"," b"," static/images/o6.png",2992
"1182",121,10,1480712068669,"1"," static/images/o2.png"," static/images/o6.png"," Negation"," static/images/o6.png"," static/images/o6.png"," b"," a"," static/images/o2.png",2008
"1183",121,11,1480712071325,"1"," static/images/o2.png"," static/images/o6.png"," Negation"," static/images/o4.png"," static/images/o2.png"," c"," d"," static/images/o5.png",1967
"1191",137,8,1480712108047,"4"," static/images/o2.png"," static/images/o2.png"," Identity"," static/images/o5.png"," static/images/o2.png"," d"," d"," static/images/o5.png",3999
"1192",137,9,1480712112163,"4"," static/images/o2.png"," static/images/o2.png"," Identity"," static/images/o6.png"," static/images/o6.png"," b"," b"," static/images/o6.png",3030
"1193",137,10,1480712114370,"4"," static/images/o2.png"," static/images/o2.png"," Identity"," static/images/o2.png"," static/images/o2.png"," a"," a"," static/images/o2.png",1471
"1194",137,11,1480712119280,"4"," static/images/o2.png"," static/images/o2.png"," Identity"," static/images/o4.png"," static/images/o2.png"," c"," c"," static/images/o4.png",3703
"1202",94,8,1480712093954,"3"," static/images/o4.png"," static/images/o4.png"," ConstantA"," static/images/o4.png"," static/images/o4.png"," a"," a"," static/images/o4.png",9613
"1203",94,9,1480712100538,"3"," static/images/o4.png"," static/images/o4.png"," ConstantA"," static/images/o6.png"," static/images/o4.png"," c"," d"," static/images/o3.png",5621
"1204",94,10,1480712105626,"3"," static/images/o4.png"," static/images/o4.png"," ConstantA"," static/images/o3.png"," static/images/o4.png"," d"," e"," static/images/o1.png",3912
"1205",94,11,1480712109734,"3"," static/images/o4.png"," static/images/o4.png"," ConstantA"," static/images/o2.png"," static/images/o2.png"," b"," a"," static/images/o4.png",3260
"1213",149,8,1480712155073,"0"," static/images/o4.png"," static/images/o1.png"," Successor"," static/images/o4.png"," static/images/o4.png"," a"," b"," static/images/o1.png",3432
"1214",149,9,1480712160825,"0"," static/images/o4.png"," static/images/o1.png"," Successor"," static/images/o6.png"," static/images/o4.png"," d"," e"," static/images/o3.png",4220
"1215",149,10,1480712170469,"0"," static/images/o4.png"," static/images/o1.png"," Successor"," static/images/o1.png"," static/images/o1.png"," b"," c"," static/images/o5.png",3815
"1216",149,11,1480712177527,"0"," static/images/o4.png"," static/images/o1.png"," Successor"," static/images/o5.png"," static/images/o4.png"," c"," d"," static/images/o6.png",4454
"1224",124,8,1480712145449,"1"," static/images/o4.png"," static/images/o5.png"," Negation"," static/images/o3.png"," static/images/o4.png"," c"," d"," static/images/o2.png",7191
"1225",124,9,1480712150416,"1"," static/images/o4.png"," static/images/o5.png"," Negation"," static/images/o2.png"," static/images/o4.png"," d"," c"," static/images/o3.png",3385
"1226",124,10,1480712155616,"1"," static/images/o4.png"," static/images/o5.png"," Negation"," static/images/o5.png"," static/images/o5.png"," b"," a"," static/images/o4.png",3613
"1227",124,11,1480712159085,"1"," static/images/o4.png"," static/images/o5.png"," Negation"," static/images/o4.png"," static/images/o4.png"," a"," b"," static/images/o5.png",2634
"1235",114,8,1480712124825,"3"," static/images/o6.png"," static/images/o6.png"," ConstantA"," static/images/o4.png"," static/images/o6.png"," c"," a"," static/images/o6.png",4592
"1236",114,9,1480712137682,"3"," static/images/o6.png"," static/images/o6.png"," ConstantA"," static/images/o3.png"," static/images/o6.png"," d"," a"," static/images/o6.png",7955
"1237",114,10,1480712142991,"3"," static/images/o6.png"," static/images/o6.png"," ConstantA"," static/images/o1.png"," static/images/o1.png"," b"," a"," static/images/o6.png",3081
"1238",114,11,1480712145347,"3"," static/images/o6.png"," static/images/o6.png"," ConstantA"," static/images/o6.png"," static/images/o6.png"," a"," a"," static/images/o6.png",1714
"1246",127,8,1480712160116,"0"," static/images/o6.png"," static/images/o2.png"," Successor"," static/images/o6.png"," static/images/o6.png"," a"," b"," static/images/o2.png",6849
"1247",127,9,1480712163667,"0"," static/images/o6.png"," static/images/o2.png"," Successor"," static/images/o2.png"," static/images/o2.png"," b"," c"," static/images/o1.png",2301
"1248",127,10,1480712178565,"0"," static/images/o6.png"," static/images/o2.png"," Successor"," static/images/o3.png"," static/images/o6.png"," d"," e"," static/images/o4.png",14300
"1249",127,11,1480712192810,"0"," static/images/o6.png"," static/images/o2.png"," Successor"," static/images/o1.png"," static/images/o6.png"," c"," d"," static/images/o3.png",6342
"1257",139,8,1480712105802,"2"," static/images/o2.png"," static/images/o5.png"," ConstantB"," static/images/o2.png"," static/images/o2.png"," a"," b"," static/images/o5.png",8207
"1258",139,9,1480712110098,"2"," static/images/o2.png"," static/images/o5.png"," ConstantB"," static/images/o5.png"," static/images/o5.png"," b"," b"," static/images/o5.png",2695
"1259",139,10,1480712116131,"2"," static/images/o2.png"," static/images/o5.png"," ConstantB"," static/images/o1.png"," static/images/o2.png"," d"," c"," static/images/o3.png",4913
"1260",139,11,1480712120521,"2"," static/images/o2.png"," static/images/o5.png"," ConstantB"," static/images/o3.png"," static/images/o2.png"," c"," d"," static/images/o1.png",3391
"1268",113,8,1480712153425,"4"," static/images/o1.png"," static/images/o1.png"," Identity"," static/images/o2.png"," static/images/o2.png"," b"," b"," static/images/o2.png",2760
"1269",113,9,1480712157904,"4"," static/images/o1.png"," static/images/o1.png"," Identity"," static/images/o5.png"," static/images/o1.png"," d"," d"," static/images/o5.png",2170
"1270",113,10,1480712161310,"4"," static/images/o1.png"," static/images/o1.png"," Identity"," static/images/o4.png"," static/images/o1.png"," c"," c"," static/images/o4.png",2340
"1271",113,11,1480712164569,"4"," static/images/o1.png"," static/images/o1.png"," Identity"," static/images/o1.png"," static/images/o1.png"," a"," a"," static/images/o1.png",2108
"1279",14,8,1480712166765,"1"," static/images/o5.png"," static/images/o2.png"," Negation"," static/images/o2.png"," static/images/o2.png"," b"," a"," static/images/o5.png",3739
"1280",14,9,1480712172616,"1"," static/images/o5.png"," static/images/o2.png"," Negation"," static/images/o5.png"," static/images/o5.png"," a"," b"," static/images/o2.png",3665
"1281",14,10,1480712177881,"1"," static/images/o5.png"," static/images/o2.png"," Negation"," static/images/o4.png"," static/images/o5.png"," c"," d"," static/images/o6.png",3397
"1282",14,11,1480712182970,"1"," static/images/o5.png"," static/images/o2.png"," Negation"," static/images/o6.png"," static/images/o5.png"," d"," c"," static/images/o4.png",3387
"1290",67,8,1480712202418,"4"," static/images/o4.png"," static/images/o4.png"," Identity"," static/images/o3.png"," static/images/o4.png"," c"," c"," static/images/o3.png",5781
"1291",67,9,1480712215744,"4"," static/images/o4.png"," static/images/o4.png"," Identity"," static/images/o4.png"," static/images/o4.png"," a"," a"," static/images/o4.png",3999
"1292",67,10,1480712221487,"4"," static/images/o4.png"," static/images/o4.png"," Identity"," static/images/o1.png"," static/images/o1.png"," b"," b"," static/images/o1.png",2957
"1293",67,11,1480712225364,"4"," static/images/o4.png"," static/images/o4.png"," Identity"," static/images/o2.png"," static/images/o4.png"," d"," d"," static/images/o2.png",2697
"1301",109,8,1480712130589,"0"," static/images/o5.png"," static/images/o4.png"," Successor"," static/images/o3.png"," static/images/o5.png"," c"," e"," static/images/o6.png",10904
"1302",109,9,1480712134595,"0"," static/images/o5.png"," static/images/o4.png"," Successor"," static/images/o2.png"," static/images/o5.png"," d"," e"," static/images/o6.png",2975
"1303",109,10,1480712140668,"0"," static/images/o5.png"," static/images/o4.png"," Successor"," static/images/o5.png"," static/images/o5.png"," a"," b"," static/images/o4.png",5232
"1304",109,11,1480712143741,"0"," static/images/o5.png"," static/images/o4.png"," Successor"," static/images/o4.png"," static/images/o4.png"," b"," c"," static/images/o3.png",2609
"1312",136,8,1480712219076,"2"," static/images/o5.png"," static/images/o3.png"," ConstantB"," static/images/o3.png"," static/images/o3.png"," b"," b"," static/images/o3.png",6729
"1313",136,9,1480712224519,"2"," static/images/o5.png"," static/images/o3.png"," ConstantB"," static/images/o4.png"," static/images/o5.png"," d"," e"," static/images/o1.png",3790
"1314",136,10,1480712236892,"2"," static/images/o5.png"," static/images/o3.png"," ConstantB"," static/images/o2.png"," static/images/o5.png"," c"," a"," static/images/o5.png",9947
"1315",136,11,1480712240915,"2"," static/images/o5.png"," static/images/o3.png"," ConstantB"," static/images/o5.png"," static/images/o5.png"," a"," b"," static/images/o3.png",2831
"1323",97,8,1480712207799,"3"," static/images/o5.png"," static/images/o5.png"," ConstantA"," static/images/o5.png"," static/images/o5.png"," a"," e"," static/images/o4.png",17758
"1324",97,9,1480712219096,"3"," static/images/o5.png"," static/images/o5.png"," ConstantA"," static/images/o6.png"," static/images/o5.png"," c"," b"," static/images/o2.png",9086
"1325",97,10,1480712225636,"3"," static/images/o5.png"," static/images/o5.png"," ConstantA"," static/images/o2.png"," static/images/o2.png"," b"," a"," static/images/o5.png",4367
"1326",97,11,1480712236494,"3"," static/images/o5.png"," static/images/o5.png"," ConstantA"," static/images/o3.png"," static/images/o5.png"," d"," c"," static/images/o6.png",8078
"1334",53,8,1480712219832,"0"," static/images/o3.png"," static/images/o2.png"," Successor"," static/images/o2.png"," static/images/o2.png"," b"," e"," static/images/o5.png",10852
"1335",53,9,1480712233158,"0"," static/images/o3.png"," static/images/o2.png"," Successor"," static/images/o6.png"," static/images/o3.png"," d"," e"," static/images/o5.png",11033
"1336",53,10,1480712256614,"0"," static/images/o3.png"," static/images/o2.png"," Successor"," static/images/o4.png"," static/images/o3.png"," c"," d"," static/images/o6.png",21825
"1337",53,11,1480712261353,"0"," static/images/o3.png"," static/images/o2.png"," Successor"," static/images/o3.png"," static/images/o3.png"," a"," b"," static/images/o2.png",3704
"1345",60,8,1480713187665,"4"," static/images/o1.png"," static/images/o1.png"," Identity"," static/images/o3.png"," static/images/o1.png"," c"," c"," static/images/o3.png",1996
"1346",60,9,1480713192373,"4"," static/images/o1.png"," static/images/o1.png"," Identity"," static/images/o6.png"," static/images/o1.png"," d"," d"," static/images/o6.png",2447
"1347",60,10,1480713196085,"4"," static/images/o1.png"," static/images/o1.png"," Identity"," static/images/o2.png"," static/images/o2.png"," b"," b"," static/images/o2.png",2870
"1348",60,11,1480713199071,"4"," static/images/o1.png"," static/images/o1.png"," Identity"," static/images/o1.png"," static/images/o1.png"," a"," a"," static/images/o1.png",2266
"1356",1,8,1480712303236,"1"," static/images/o4.png"," static/images/o1.png"," Negation"," static/images/o2.png"," static/images/o4.png"," d"," c"," static/images/o5.png",15107
"1357",1,9,1480712311697,"1"," static/images/o4.png"," static/images/o1.png"," Negation"," static/images/o4.png"," static/images/o4.png"," a"," b"," static/images/o1.png",6265
"1358",1,10,1480712333042,"1"," static/images/o4.png"," static/images/o1.png"," Negation"," static/images/o1.png"," static/images/o1.png"," b"," a"," static/images/o4.png",5098
"1359",1,11,1480712342607,"1"," static/images/o4.png"," static/images/o1.png"," Negation"," static/images/o5.png"," static/images/o4.png"," c"," d"," static/images/o2.png",2740
"1367",143,8,1480712231331,"2"," static/images/o3.png"," static/images/o4.png"," ConstantB"," static/images/o3.png"," static/images/o3.png"," a"," b"," static/images/o4.png",7144
"1368",143,9,1480712244307,"2"," static/images/o3.png"," static/images/o4.png"," ConstantB"," static/images/o4.png"," static/images/o4.png"," b"," b"," static/images/o4.png",10860
"1369",143,10,1480712251520,"2"," static/images/o3.png"," static/images/o4.png"," ConstantB"," static/images/o1.png"," static/images/o3.png"," d"," a"," static/images/o3.png",5409
"1370",143,11,1480712258911,"2"," static/images/o3.png"," static/images/o4.png"," ConstantB"," static/images/o5.png"," static/images/o3.png"," c"," d"," static/images/o1.png",5748
"1378",17,8,1480712322522,"3"," static/images/o4.png"," static/images/o4.png"," ConstantA"," static/images/o4.png"," static/images/o4.png"," a"," a"," static/images/o4.png",13591
"1379",17,9,1480712334386,"3"," static/images/o4.png"," static/images/o4.png"," ConstantA"," static/images/o6.png"," static/images/o6.png"," b"," a"," static/images/o4.png",9505
"1380",17,10,1480712344354,"3"," static/images/o4.png"," static/images/o4.png"," ConstantA"," static/images/o2.png"," static/images/o4.png"," c"," a"," static/images/o4.png",6440
"1381",17,11,1480712351610,"3"," static/images/o4.png"," static/images/o4.png"," ConstantA"," static/images/o3.png"," static/images/o4.png"," d"," a"," static/images/o4.png",5369
"1391",22,8,1480712323758,"3"," static/images/o6.png"," static/images/o6.png"," ConstantA"," static/images/o5.png"," static/images/o5.png"," b"," a"," static/images/o6.png",5090
"1392",22,9,1480712342895,"3"," static/images/o6.png"," static/images/o6.png"," ConstantA"," static/images/o4.png"," static/images/o6.png"," c"," e"," static/images/o1.png",12870
"1393",22,10,1480712348977,"3"," static/images/o6.png"," static/images/o6.png"," ConstantA"," static/images/o6.png"," static/images/o6.png"," a"," a"," static/images/o6.png",3475
"1394",22,11,1480712365755,"3"," static/images/o6.png"," static/images/o6.png"," ConstantA"," static/images/o3.png"," static/images/o6.png"," d"," b"," static/images/o5.png",14690
"1402",83,8,1480712220097,"4"," static/images/o2.png"," static/images/o2.png"," Identity"," static/images/o6.png"," static/images/o2.png"," d"," d"," static/images/o6.png",3168
"1403",83,9,1480712224872,"4"," static/images/o2.png"," static/images/o2.png"," Identity"," static/images/o1.png"," static/images/o2.png"," c"," c"," static/images/o1.png",2919
"1404",83,10,1480712229907,"4"," static/images/o2.png"," static/images/o2.png"," Identity"," static/images/o2.png"," static/images/o2.png"," a"," a"," static/images/o2.png",2274
"1405",83,11,1480712234536,"4"," static/images/o2.png"," static/images/o2.png"," Identity"," static/images/o3.png"," static/images/o3.png"," b"," b"," static/images/o3.png",1724
"1413",13,8,1480712327685,"0"," static/images/o1.png"," static/images/o4.png"," Successor"," static/images/o5.png"," static/images/o1.png"," c"," d"," static/images/o6.png",7786
"1414",13,9,1480712345006,"0"," static/images/o1.png"," static/images/o4.png"," Successor"," static/images/o4.png"," static/images/o4.png"," b"," c"," static/images/o5.png",15342
"1415",13,10,1480712349457,"0"," static/images/o1.png"," static/images/o4.png"," Successor"," static/images/o6.png"," static/images/o1.png"," d"," e"," static/images/o3.png",3090
"1416",13,11,1480712355634,"0"," static/images/o1.png"," static/images/o4.png"," Successor"," static/images/o1.png"," static/images/o1.png"," a"," b"," static/images/o4.png",4997
"1432",58,8,1480712318910,"1"," static/images/o6.png"," static/images/o3.png"," Negation"," static/images/o3.png"," static/images/o3.png"," b"," a"," static/images/o6.png",8583
"1433",58,9,1480712323792,"1"," static/images/o6.png"," static/images/o3.png"," Negation"," static/images/o6.png"," static/images/o6.png"," a"," b"," static/images/o3.png",3037
"1434",58,10,1480712330564,"1"," static/images/o6.png"," static/images/o3.png"," Negation"," static/images/o5.png"," static/images/o6.png"," d"," c"," static/images/o2.png",5006
"1435",58,11,1480712334963,"1"," static/images/o6.png"," static/images/o3.png"," Negation"," static/images/o2.png"," static/images/o6.png"," c"," d"," static/images/o5.png",3094
"1449",65,8,1480712490280,"2"," static/images/o5.png"," static/images/o3.png"," ConstantB"," static/images/o3.png"," static/images/o3.png"," b"," b"," static/images/o3.png",15743
"1450",65,9,1480712501959,"2"," static/images/o5.png"," static/images/o3.png"," ConstantB"," static/images/o2.png"," static/images/o5.png"," c"," b"," static/images/o3.png",10335
"1451",65,10,1480712507456,"2"," static/images/o5.png"," static/images/o3.png"," ConstantB"," static/images/o5.png"," static/images/o5.png"," a"," b"," static/images/o3.png",4161
"1452",65,11,1480712517159,"2"," static/images/o5.png"," static/images/o3.png"," ConstantB"," static/images/o1.png"," static/images/o5.png"," d"," a"," static/images/o5.png",8600
"1461",20,8,1480712282101,"0"," static/images/o5.png"," static/images/o1.png"," Successor"," static/images/o1.png"," static/images/o1.png"," b"," c"," static/images/o2.png",9091
"1462",20,9,1480712293342,"0"," static/images/o5.png"," static/images/o1.png"," Successor"," static/images/o6.png"," static/images/o5.png"," d"," e"," static/images/o3.png",9152
"1463",20,10,1480712306379,"0"," static/images/o5.png"," static/images/o1.png"," Successor"," static/images/o2.png"," static/images/o5.png"," c"," d"," static/images/o6.png",11617
"1464",20,11,1480712317995,"0"," static/images/o5.png"," static/images/o1.png"," Successor"," static/images/o5.png"," static/images/o5.png"," a"," b"," static/images/o1.png",10195
"1472",15,8,1480712801005,"4"," static/images/o3.png"," static/images/o3.png"," Identity"," static/images/o1.png"," static/images/o3.png"," d"," c"," static/images/o6.png",12968
"1473",15,9,1480712811187,"4"," static/images/o3.png"," static/images/o3.png"," Identity"," static/images/o6.png"," static/images/o3.png"," c"," e"," static/images/o2.png",8296
"1474",15,10,1480712815219,"4"," static/images/o3.png"," static/images/o3.png"," Identity"," static/images/o3.png"," static/images/o3.png"," a"," d"," static/images/o1.png",3030
"1475",15,11,1480712818540,"4"," static/images/o3.png"," static/images/o3.png"," Identity"," static/images/o5.png"," static/images/o5.png"," b"," b"," static/images/o5.png",2158
"1484",56,8,1480714212771,"2"," static/images/o1.png"," static/images/o5.png"," ConstantB"," static/images/o3.png"," static/images/o1.png"," c"," b"," static/images/o5.png",5560
"1485",56,9,1480714217443,"2"," static/images/o1.png"," static/images/o5.png"," ConstantB"," static/images/o1.png"," static/images/o1.png"," a"," b"," static/images/o5.png",3792
"1486",56,10,1480714220555,"2"," static/images/o1.png"," static/images/o5.png"," ConstantB"," static/images/o6.png"," static/images/o1.png"," d"," b"," static/images/o5.png",1896
"1487",56,11,1480714223187,"2"," static/images/o1.png"," static/images/o5.png"," ConstantB"," static/images/o5.png"," static/images/o5.png"," b"," b"," static/images/o5.png",1832
"1495",78,8,1480714635336,"3"," static/images/o2.png"," static/images/o2.png"," ConstantA"," static/images/o5.png"," static/images/o2.png"," c"," a"," static/images/o2.png",15176
"1496",78,9,1480714644795,"3"," static/images/o2.png"," static/images/o2.png"," ConstantA"," static/images/o4.png"," static/images/o4.png"," b"," a"," static/images/o2.png",5676
"1497",78,10,1480714659439,"3"," static/images/o2.png"," static/images/o2.png"," ConstantA"," static/images/o1.png"," static/images/o2.png"," d"," d"," static/images/o1.png",11699
"1498",78,11,1480714663140,"3"," static/images/o2.png"," static/images/o2.png"," ConstantA"," static/images/o2.png"," static/images/o2.png"," a"," a"," static/images/o2.png",2401
"1506",66,8,1480714609029,"1"," static/images/o6.png"," static/images/o4.png"," Negation"," static/images/o4.png"," static/images/o4.png"," b"," a"," static/images/o6.png",6515
"1507",66,9,1480714613379,"1"," static/images/o6.png"," static/images/o4.png"," Negation"," static/images/o1.png"," static/images/o6.png"," c"," d"," static/images/o5.png",2208
"1508",66,10,1480714615825,"1"," static/images/o6.png"," static/images/o4.png"," Negation"," static/images/o5.png"," static/images/o6.png"," d"," c"," static/images/o1.png",1520
"1509",66,11,1480714618362,"1"," static/images/o6.png"," static/images/o4.png"," Negation"," static/images/o6.png"," static/images/o6.png"," a"," b"," static/images/o4.png",1633
"1517",63,8,1480714905562,"4"," static/images/o4.png"," static/images/o4.png"," Identity"," static/images/o1.png"," static/images/o4.png"," c"," c"," static/images/o1.png",6070
"1518",63,9,1480714916118,"4"," static/images/o4.png"," static/images/o4.png"," Identity"," static/images/o5.png"," static/images/o4.png"," d"," d"," static/images/o5.png",9757
"1519",63,10,1480714919477,"4"," static/images/o4.png"," static/images/o4.png"," Identity"," static/images/o2.png"," static/images/o2.png"," b"," b"," static/images/o2.png",2509
"1520",63,11,1480714922657,"4"," static/images/o4.png"," static/images/o4.png"," Identity"," static/images/o4.png"," static/images/o4.png"," a"," a"," static/images/o4.png",2349
"1528",104,8,1480714794804,"3"," static/images/o3.png"," static/images/o3.png"," ConstantA"," static/images/o2.png"," static/images/o3.png"," d"," e"," static/images/o5.png",16519
"1529",104,9,1480714808006,"3"," static/images/o3.png"," static/images/o3.png"," ConstantA"," static/images/o3.png"," static/images/o3.png"," a"," a"," static/images/o3.png",11590
"1530",104,10,1480714817383,"3"," static/images/o3.png"," static/images/o3.png"," ConstantA"," static/images/o1.png"," static/images/o3.png"," c"," a"," static/images/o3.png",7813
"1531",104,11,1480714824387,"3"," static/images/o3.png"," static/images/o3.png"," ConstantA"," static/images/o6.png"," static/images/o6.png"," b"," a"," static/images/o3.png",4529
"1539",112,8,1480714687501,"0"," static/images/o2.png"," static/images/o1.png"," Successor"," static/images/o1.png"," static/images/o1.png"," b"," c"," static/images/o5.png",7177
"1540",112,9,1480714702194,"0"," static/images/o2.png"," static/images/o1.png"," Successor"," static/images/o2.png"," static/images/o2.png"," a"," b"," static/images/o1.png",10423
"1541",112,10,1480714707009,"0"," static/images/o2.png"," static/images/o1.png"," Successor"," static/images/o5.png"," static/images/o2.png"," c"," d"," static/images/o4.png",2673
"1542",112,11,1480714716152,"0"," static/images/o2.png"," static/images/o1.png"," Successor"," static/images/o4.png"," static/images/o2.png"," d"," e"," static/images/o3.png",3142
"1550",129,8,1480714721080,"1"," static/images/o5.png"," static/images/o6.png"," Negation"," static/images/o6.png"," static/images/o6.png"," b"," a"," static/images/o5.png",5089
"1551",129,9,1480714726948,"1"," static/images/o5.png"," static/images/o6.png"," Negation"," static/images/o1.png"," static/images/o5.png"," c"," d"," static/images/o4.png",4587
"1552",129,10,1480714731859,"1"," static/images/o5.png"," static/images/o6.png"," Negation"," static/images/o4.png"," static/images/o5.png"," d"," c"," static/images/o1.png",3495
"1553",129,11,1480714734883,"1"," static/images/o5.png"," static/images/o6.png"," Negation"," static/images/o5.png"," static/images/o5.png"," a"," b"," static/images/o6.png",1991
"1561",88,8,1480714756349,"2"," static/images/o2.png"," static/images/o5.png"," ConstantB"," static/images/o2.png"," static/images/o2.png"," a"," b"," static/images/o5.png",10845
"1562",88,9,1480714764482,"2"," static/images/o2.png"," static/images/o5.png"," ConstantB"," static/images/o6.png"," static/images/o2.png"," c"," d"," static/images/o3.png",6537
"1563",88,10,1480714769791,"2"," static/images/o2.png"," static/images/o5.png"," ConstantB"," static/images/o3.png"," static/images/o2.png"," d"," e"," static/images/o4.png",4308
"1564",88,11,1480714777363,"2"," static/images/o2.png"," static/images/o5.png"," ConstantB"," static/images/o5.png"," static/images/o5.png"," b"," b"," static/images/o5.png",6515
"1572",102,8,1480714940607,"0"," static/images/o3.png"," static/images/o2.png"," Successor"," static/images/o2.png"," static/images/o2.png"," b"," d"," static/images/o4.png",22051
"1573",102,9,1480714951698,"0"," static/images/o3.png"," static/images/o2.png"," Successor"," static/images/o3.png"," static/images/o3.png"," a"," d"," static/images/o4.png",9354
"1574",102,10,1480714961758,"0"," static/images/o3.png"," static/images/o2.png"," Successor"," static/images/o6.png"," static/images/o3.png"," c"," d"," static/images/o4.png",7911
"1575",102,11,1480714966012,"0"," static/images/o3.png"," static/images/o2.png"," Successor"," static/images/o4.png"," static/images/o3.png"," d"," e"," static/images/o1.png",2632
"1583",126,8,1480715224998,"4"," static/images/o4.png"," static/images/o4.png"," Identity"," static/images/o6.png"," static/images/o4.png"," c"," c"," static/images/o6.png",9115
