"","WorkerID","Trial","TimeStamp","Condition","Argument1","Correct","ConditionID","Testarg1","Testarg2","Question","Response","ResponseImage","RT","NA"
"7",55,8,1480352250870,"1"," static/images/o1.png"," static/images/o6.png"," Negation"," static/images/o5.png"," static/images/o1.png"," d"," c"," static/images/o3.png",5331,1488
"8",55,9,1480352256205,"1"," static/images/o1.png"," static/images/o6.png"," Negation"," static/images/o6.png"," static/images/o6.png"," b"," a"," static/images/o1.png",4278,2552
"9",55,10,1480352260653,"1"," static/images/o1.png"," static/images/o6.png"," Negation"," static/images/o1.png"," static/images/o1.png"," a"," b"," static/images/o6.png",3471,NA
"10",55,11,1480352265661,"1"," static/images/o1.png"," static/images/o6.png"," Negation"," static/images/o3.png"," static/images/o1.png"," c"," d"," static/images/o5.png",3495,6670
"18",85,8,1480352334206,"2"," static/images/o4.png"," static/images/o6.png"," ConstantB"," static/images/o5.png"," static/images/o4.png"," c"," a"," static/images/o4.png",12396,NA
"19",85,9,1480352345965,"2"," static/images/o4.png"," static/images/o6.png"," ConstantB"," static/images/o4.png"," static/images/o4.png"," a"," b"," static/images/o6.png",8094,2379
"20",85,10,1480352355474,"2"," static/images/o4.png"," static/images/o6.png"," ConstantB"," static/images/o6.png"," static/images/o6.png"," b"," a"," static/images/o4.png",6502,870
"28",82,8,1480352319523,"0"," static/images/o1.png"," static/images/o4.png"," Successor"," static/images/o4.png"," static/images/o4.png"," b"," c"," static/images/o2.png",11261,26697
"29",82,9,1480352326019,"0"," static/images/o1.png"," static/images/o4.png"," Successor"," static/images/o1.png"," static/images/o1.png"," a"," b"," static/images/o4.png",3242,2723
"30",82,10,1480352331237,"0"," static/images/o1.png"," static/images/o4.png"," Successor"," static/images/o2.png"," static/images/o1.png"," c"," d"," static/images/o6.png",3144,4612
"38",95,8,1480352537961,"0"," static/images/o2.png"," static/images/o3.png"," Successor"," static/images/o1.png"," static/images/o2.png"," c"," a"," static/images/o2.png",7704,3176
"39",95,9,1480352545609,"0"," static/images/o2.png"," static/images/o3.png"," Successor"," static/images/o2.png"," static/images/o2.png"," a"," b"," static/images/o3.png",6337,10890
"40",95,10,1480352551699,"0"," static/images/o2.png"," static/images/o3.png"," Successor"," static/images/o3.png"," static/images/o3.png"," b"," c"," static/images/o1.png",4156,4865
"48",9,8,1480352330404,"1"," static/images/o1.png"," static/images/o4.png"," Negation"," static/images/o4.png"," static/images/o4.png"," b"," a"," static/images/o1.png",12366,4062
"49",9,9,1480352337174,"1"," static/images/o1.png"," static/images/o4.png"," Negation"," static/images/o1.png"," static/images/o1.png"," a"," c"," static/images/o5.png",5280,4482
"50",9,10,1480352342840,"1"," static/images/o1.png"," static/images/o4.png"," Negation"," static/images/o5.png"," static/images/o1.png"," c"," b"," static/images/o4.png",4617,2324
"51",9,11,1480352346552,"1"," static/images/o1.png"," static/images/o4.png"," Negation"," static/images/o3.png"," static/images/o1.png"," d"," a"," static/images/o1.png",2668,5525
"59",60,8,1480352355295,"4"," static/images/o2.png"," static/images/o2.png"," Identity"," static/images/o2.png"," static/images/o2.png"," a"," a"," static/images/o2.png",9693,2421
"60",60,9,1480352365105,"4"," static/images/o2.png"," static/images/o2.png"," Identity"," static/images/o4.png"," static/images/o2.png"," c"," c"," static/images/o4.png",8380,1822
"61",60,10,1480352368053,"4"," static/images/o2.png"," static/images/o2.png"," Identity"," static/images/o3.png"," static/images/o3.png"," b"," b"," static/images/o3.png",2175,2006
"69",41,8,1480352336715,"2"," static/images/o3.png"," static/images/o5.png"," ConstantB"," static/images/o2.png"," static/images/o3.png"," c"," a"," static/images/o3.png",8794,4121
"70",41,9,1480352342793,"2"," static/images/o3.png"," static/images/o5.png"," ConstantB"," static/images/o5.png"," static/images/o5.png"," b"," b"," static/images/o5.png",4963,6131
"71",41,10,1480352345972,"2"," static/images/o3.png"," static/images/o5.png"," ConstantB"," static/images/o3.png"," static/images/o3.png"," a"," b"," static/images/o5.png",2507,2842
"79",54,8,1480352446097,"3"," static/images/o4.png"," static/images/o4.png"," ConstantA"," static/images/o2.png"," static/images/o2.png"," b"," c"," static/images/o3.png",13914,3518
"80",54,9,1480352463443,"3"," static/images/o4.png"," static/images/o4.png"," ConstantA"," static/images/o4.png"," static/images/o4.png"," a"," a"," static/images/o4.png",14853,2752
"81",54,10,1480352471257,"3"," static/images/o4.png"," static/images/o4.png"," ConstantA"," static/images/o3.png"," static/images/o4.png"," c"," b"," static/images/o2.png",7007,NA
"89",2,8,1480352395246,"2"," static/images/o3.png"," static/images/o2.png"," ConstantB"," static/images/o2.png"," static/images/o2.png"," b"," b"," static/images/o2.png",8547,3295
"90",2,9,1480352402166,"2"," static/images/o3.png"," static/images/o2.png"," ConstantB"," static/images/o3.png"," static/images/o3.png"," a"," b"," static/images/o2.png",5590,NA
"91",2,10,1480352415158,"2"," static/images/o3.png"," static/images/o2.png"," ConstantB"," static/images/o5.png"," static/images/o3.png"," c"," a"," static/images/o3.png",11261,8187
"99",1,8,1480352402745,"1"," static/images/o1.png"," static/images/o3.png"," Negation"," static/images/o3.png"," static/images/o3.png"," b"," a"," static/images/o1.png",7489,NA
"100",1,9,1480352409035,"1"," static/images/o1.png"," static/images/o3.png"," Negation"," static/images/o5.png"," static/images/o1.png"," d"," c"," static/images/o4.png",4578,15078
"101",1,10,1480352415593,"1"," static/images/o1.png"," static/images/o3.png"," Negation"," static/images/o1.png"," static/images/o1.png"," a"," b"," static/images/o3.png",5434,4720
"102",1,11,1480352420099,"1"," static/images/o1.png"," static/images/o3.png"," Negation"," static/images/o4.png"," static/images/o1.png"," c"," a"," static/images/o1.png",3444,1351
"130",36,8,1480352594564,"0"," static/images/o6.png"," static/images/o4.png"," Successor"," static/images/o6.png"," static/images/o6.png"," a"," d"," static/images/o2.png",5487,6045
"131",36,9,1480352608744,"0"," static/images/o6.png"," static/images/o4.png"," Successor"," static/images/o5.png"," static/images/o6.png"," c"," d"," static/images/o2.png",6164,5957
"132",36,10,1480352612777,"0"," static/images/o6.png"," static/images/o4.png"," Successor"," static/images/o4.png"," static/images/o4.png"," b"," c"," static/images/o5.png",2545,8310
"140",18,8,1480352746788,"2"," static/images/o3.png"," static/images/o2.png"," ConstantB"," static/images/o1.png"," static/images/o3.png"," c"," c"," static/images/o1.png",7386,4526
"141",18,9,1480352755324,"2"," static/images/o3.png"," static/images/o2.png"," ConstantB"," static/images/o2.png"," static/images/o2.png"," b"," b"," static/images/o2.png",7502,3340
"142",18,10,1480352758660,"2"," static/images/o3.png"," static/images/o2.png"," ConstantB"," static/images/o3.png"," static/images/o3.png"," a"," b"," static/images/o2.png",2610,NA
"150",48,8,1480352835671,"4"," static/images/o1.png"," static/images/o1.png"," Identity"," static/images/o1.png"," static/images/o1.png"," a"," a"," static/images/o1.png",6221,5431
"151",48,9,1480352839598,"4"," static/images/o1.png"," static/images/o1.png"," Identity"," static/images/o6.png"," static/images/o6.png"," b"," b"," static/images/o6.png",2529,NA
"152",48,10,1480352842518,"4"," static/images/o1.png"," static/images/o1.png"," Identity"," static/images/o5.png"," static/images/o1.png"," c"," c"," static/images/o5.png",2165,12224
"160",23,8,1480352871285,"3"," static/images/o5.png"," static/images/o5.png"," ConstantA"," static/images/o4.png"," static/images/o5.png"," c"," a"," static/images/o5.png",11819,NA
"161",23,9,1480352876585,"3"," static/images/o5.png"," static/images/o5.png"," ConstantA"," static/images/o2.png"," static/images/o2.png"," b"," a"," static/images/o5.png",4012,18784
"162",23,10,1480352881214,"3"," static/images/o5.png"," static/images/o5.png"," ConstantA"," static/images/o5.png"," static/images/o5.png"," a"," a"," static/images/o5.png",3892,14719
"170",31,8,1480353206689,"0"," static/images/o3.png"," static/images/o1.png"," Successor"," static/images/o3.png"," static/images/o3.png"," a"," b"," static/images/o1.png",21558,10591
"171",31,9,1480353214607,"0"," static/images/o3.png"," static/images/o1.png"," Successor"," static/images/o2.png"," static/images/o3.png"," c"," d"," static/images/o4.png",6973,3152
"172",31,10,1480353218506,"0"," static/images/o3.png"," static/images/o1.png"," Successor"," static/images/o1.png"," static/images/o1.png"," b"," c"," static/images/o2.png",3074,3392
"180",45,8,1480353308760,"1"," static/images/o4.png"," static/images/o2.png"," Negation"," static/images/o2.png"," static/images/o2.png"," b"," a"," static/images/o4.png",6134,5031
"181",45,9,1480353314850,"1"," static/images/o4.png"," static/images/o2.png"," Negation"," static/images/o1.png"," static/images/o4.png"," d"," c"," static/images/o6.png",4151,2386
"182",45,10,1480353318834,"1"," static/images/o4.png"," static/images/o2.png"," Negation"," static/images/o4.png"," static/images/o4.png"," a"," b"," static/images/o2.png",2382,1861
"183",45,11,1480353322146,"1"," static/images/o4.png"," static/images/o2.png"," Negation"," static/images/o6.png"," static/images/o4.png"," c"," d"," static/images/o1.png",2446,2020
"191",89,8,1480353409671,"4"," static/images/o4.png"," static/images/o4.png"," Identity"," static/images/o4.png"," static/images/o4.png"," a"," a"," static/images/o4.png",28916,1760
"192",89,9,1480353416047,"4"," static/images/o4.png"," static/images/o4.png"," Identity"," static/images/o3.png"," static/images/o3.png"," b"," b"," static/images/o3.png",4689,1656
"193",89,10,1480353421795,"4"," static/images/o4.png"," static/images/o4.png"," Identity"," static/images/o6.png"," static/images/o4.png"," c"," c"," static/images/o6.png",4465,1832
"201",19,8,1480353496124,"3"," static/images/o1.png"," static/images/o1.png"," ConstantA"," static/images/o1.png"," static/images/o1.png"," a"," a"," static/images/o1.png",22623,1118
"202",19,9,1480353502318,"3"," static/images/o1.png"," static/images/o1.png"," ConstantA"," static/images/o4.png"," static/images/o4.png"," b"," a"," static/images/o1.png",3620,861
"203",19,10,1480353509289,"3"," static/images/o1.png"," static/images/o1.png"," ConstantA"," static/images/o5.png"," static/images/o1.png"," c"," c"," static/images/o5.png",5253,436
"211",30,8,1480353839055,"1"," static/images/o1.png"," static/images/o6.png"," Negation"," static/images/o2.png"," static/images/o1.png"," d"," c"," static/images/o3.png",3683,1640
"212",30,9,1480353843637,"1"," static/images/o1.png"," static/images/o6.png"," Negation"," static/images/o6.png"," static/images/o6.png"," b"," a"," static/images/o1.png",2095,1359
"213",30,10,1480353846015,"1"," static/images/o1.png"," static/images/o6.png"," Negation"," static/images/o1.png"," static/images/o1.png"," a"," b"," static/images/o6.png",1672,1728
"214",30,11,1480353848223,"1"," static/images/o1.png"," static/images/o6.png"," Negation"," static/images/o3.png"," static/images/o1.png"," c"," d"," static/images/o2.png",1530,NA
"222",77,8,1480353579603,"0"," static/images/o4.png"," static/images/o5.png"," Successor"," static/images/o5.png"," static/images/o5.png"," b"," c"," static/images/o1.png",7463,4238
"223",77,9,1480353583350,"0"," static/images/o4.png"," static/images/o5.png"," Successor"," static/images/o4.png"," static/images/o4.png"," a"," b"," static/images/o5.png",2636,NA
"224",77,10,1480353592427,"0"," static/images/o4.png"," static/images/o5.png"," Successor"," static/images/o1.png"," static/images/o4.png"," c"," d"," static/images/o2.png",7589,17495
"232",50,8,1480353581741,"2"," static/images/o1.png"," static/images/o6.png"," ConstantB"," static/images/o1.png"," static/images/o1.png"," a"," b"," static/images/o6.png",8371,NA
"233",50,9,1480353588370,"2"," static/images/o1.png"," static/images/o6.png"," ConstantB"," static/images/o6.png"," static/images/o6.png"," b"," b"," static/images/o6.png",4706,8768
"234",50,10,1480353596217,"2"," static/images/o1.png"," static/images/o6.png"," ConstantB"," static/images/o2.png"," static/images/o1.png"," c"," a"," static/images/o1.png",6343,4925
"242",15,8,1480353712922,"4"," static/images/o6.png"," static/images/o6.png"," Identity"," static/images/o4.png"," static/images/o4.png"," b"," b"," static/images/o4.png",3927,3191
"243",15,9,1480353717082,"4"," static/images/o6.png"," static/images/o6.png"," Identity"," static/images/o2.png"," static/images/o6.png"," c"," c"," static/images/o2.png",2848,8417
"244",15,10,1480353719626,"4"," static/images/o6.png"," static/images/o6.png"," Identity"," static/images/o6.png"," static/images/o6.png"," a"," a"," static/images/o6.png",1848,4745
"252",63,8,1480353881845,"4"," static/images/o5.png"," static/images/o5.png"," Identity"," static/images/o4.png"," static/images/o4.png"," b"," b"," static/images/o4.png",7376,5022
"253",63,9,1480353888481,"4"," static/images/o5.png"," static/images/o5.png"," Identity"," static/images/o3.png"," static/images/o5.png"," c"," c"," static/images/o3.png",3973,6305
"254",63,10,1480353893265,"4"," static/images/o5.png"," static/images/o5.png"," Identity"," static/images/o5.png"," static/images/o5.png"," a"," a"," static/images/o5.png",3364,3015
"262",21,8,1480353860007,"1"," static/images/o6.png"," static/images/o2.png"," Negation"," static/images/o2.png"," static/images/o2.png"," b"," a"," static/images/o6.png",9378,3894
"263",21,9,1480353882041,"1"," static/images/o6.png"," static/images/o2.png"," Negation"," static/images/o3.png"," static/images/o6.png"," d"," c"," static/images/o5.png",16317,7384
"264",21,10,1480353888696,"1"," static/images/o6.png"," static/images/o2.png"," Negation"," static/images/o5.png"," static/images/o6.png"," c"," d"," static/images/o3.png",4978,4400
"265",21,11,1480353891871,"1"," static/images/o6.png"," static/images/o2.png"," Negation"," static/images/o6.png"," static/images/o6.png"," a"," b"," static/images/o2.png",2281,6640
"279",12,8,1480355700137,"3"," static/images/o3.png"," static/images/o3.png"," ConstantA"," static/images/o4.png"," static/images/o4.png"," b"," a"," static/images/o3.png",6188,9610
"280",12,9,1480355704382,"3"," static/images/o3.png"," static/images/o3.png"," ConstantA"," static/images/o2.png"," static/images/o3.png"," c"," a"," static/images/o3.png",3587,6450
"281",12,10,1480355707672,"3"," static/images/o3.png"," static/images/o3.png"," ConstantA"," static/images/o3.png"," static/images/o3.png"," a"," a"," static/images/o3.png",2834,2910
"289",40,8,1480354797601,"2"," static/images/o2.png"," static/images/o4.png"," ConstantB"," static/images/o4.png"," static/images/o4.png"," b"," b"," static/images/o4.png",3942,3597
"290",40,9,1480354801552,"2"," static/images/o2.png"," static/images/o4.png"," ConstantB"," static/images/o1.png"," static/images/o2.png"," c"," a"," static/images/o2.png",2887,4111
"291",40,10,1480354804103,"2"," static/images/o2.png"," static/images/o4.png"," ConstantB"," static/images/o2.png"," static/images/o2.png"," a"," b"," static/images/o4.png",1608,4272
"299",91,8,1480355498661,"0"," static/images/o1.png"," static/images/o2.png"," Successor"," static/images/o2.png"," static/images/o2.png"," b"," d"," static/images/o6.png",7036,3169
"300",91,9,1480355507673,"0"," static/images/o1.png"," static/images/o2.png"," Successor"," static/images/o3.png"," static/images/o1.png"," c"," b"," static/images/o2.png",8305,2080
"301",91,10,1480355511015,"0"," static/images/o1.png"," static/images/o2.png"," Successor"," static/images/o1.png"," static/images/o1.png"," a"," b"," static/images/o2.png",2567,3132
"309",84,8,1480355630628,"4"," static/images/o3.png"," static/images/o3.png"," Identity"," static/images/o2.png"," static/images/o2.png"," b"," b"," static/images/o2.png",11433,1734
"310",84,9,1480355644397,"4"," static/images/o3.png"," static/images/o3.png"," Identity"," static/images/o3.png"," static/images/o3.png"," a"," a"," static/images/o3.png",12311,3480
"311",84,10,1480355650511,"4"," static/images/o3.png"," static/images/o3.png"," Identity"," static/images/o4.png"," static/images/o3.png"," c"," c"," static/images/o4.png",4566,3816
"319",39,8,1480356545791,"3"," static/images/o4.png"," static/images/o4.png"," ConstantA"," static/images/o2.png"," static/images/o4.png"," c"," a"," static/images/o4.png",6996,5654
"320",39,9,1480356551981,"3"," static/images/o4.png"," static/images/o4.png"," ConstantA"," static/images/o5.png"," static/images/o5.png"," b"," a"," static/images/o4.png",4494,2457
"321",39,10,1480356559168,"3"," static/images/o4.png"," static/images/o4.png"," ConstantA"," static/images/o4.png"," static/images/o4.png"," a"," a"," static/images/o4.png",5388,3011
"329",73,8,1480357321309,"3"," static/images/o5.png"," static/images/o5.png"," ConstantA"," static/images/o6.png"," static/images/o6.png"," b"," a"," static/images/o5.png",13387,12927
"330",73,9,1480357328630,"3"," static/images/o5.png"," static/images/o5.png"," ConstantA"," static/images/o3.png"," static/images/o5.png"," c"," a"," static/images/o5.png",5134,8625
"331",73,10,1480357333644,"3"," static/images/o5.png"," static/images/o5.png"," ConstantA"," static/images/o5.png"," static/images/o5.png"," a"," a"," static/images/o5.png",3387,3550
"339",37,8,1480358923153,"1"," static/images/o3.png"," static/images/o4.png"," Negation"," static/images/o4.png"," static/images/o4.png"," b"," a"," static/images/o3.png",7138,609
"340",37,9,1480358929422,"1"," static/images/o3.png"," static/images/o4.png"," Negation"," static/images/o2.png"," static/images/o3.png"," c"," d"," static/images/o5.png",4114,1601
"341",37,10,1480358932992,"1"," static/images/o3.png"," static/images/o4.png"," Negation"," static/images/o5.png"," static/images/o3.png"," d"," c"," static/images/o2.png",2144,NA
"342",37,11,1480358936784,"1"," static/images/o3.png"," static/images/o4.png"," Negation"," static/images/o3.png"," static/images/o3.png"," a"," b"," static/images/o4.png",2926,13479
"350",83,8,1480360230819,"0"," static/images/o5.png"," static/images/o4.png"," Successor"," static/images/o1.png"," static/images/o5.png"," c"," a"," static/images/o5.png",6112,NA
"351",83,9,1480360239683,"0"," static/images/o5.png"," static/images/o4.png"," Successor"," static/images/o5.png"," static/images/o5.png"," a"," b"," static/images/o4.png",8016,6412
"352",83,10,1480360243244,"0"," static/images/o5.png"," static/images/o4.png"," Successor"," static/images/o4.png"," static/images/o4.png"," b"," c"," static/images/o1.png",2831,2784
"360",35,8,1480362525481,"2"," static/images/o4.png"," static/images/o3.png"," ConstantB"," static/images/o4.png"," static/images/o4.png"," a"," b"," static/images/o3.png",4174,8344
"361",35,9,1480362530456,"2"," static/images/o4.png"," static/images/o3.png"," ConstantB"," static/images/o1.png"," static/images/o4.png"," c"," b"," static/images/o3.png",3832,4436
"362",35,10,1480362532928,"2"," static/images/o4.png"," static/images/o3.png"," ConstantB"," static/images/o3.png"," static/images/o3.png"," b"," b"," static/images/o3.png",1816,6593
"370",99,8,1480362557855,"1"," static/images/o6.png"," static/images/o2.png"," Negation"," static/images/o6.png"," static/images/o6.png"," a"," b"," static/images/o2.png",4538,6864
"371",99,9,1480362561649,"1"," static/images/o6.png"," static/images/o2.png"," Negation"," static/images/o5.png"," static/images/o6.png"," c"," d"," static/images/o4.png",2748,3560
"372",99,10,1480362567843,"1"," static/images/o6.png"," static/images/o2.png"," Negation"," static/images/o4.png"," static/images/o6.png"," d"," c"," static/images/o5.png",2559,2579
"373",99,11,1480362571439,"1"," static/images/o6.png"," static/images/o2.png"," Negation"," static/images/o2.png"," static/images/o2.png"," b"," a"," static/images/o6.png",2758,3891
"381",56,8,1480362601955,"4"," static/images/o5.png"," static/images/o5.png"," Identity"," static/images/o6.png"," static/images/o6.png"," b"," b"," static/images/o6.png",7343,3151
"382",56,9,1480362607216,"4"," static/images/o5.png"," static/images/o5.png"," Identity"," static/images/o5.png"," static/images/o5.png"," a"," a"," static/images/o5.png",3306,13097
"383",56,10,1480362617040,"4"," static/images/o5.png"," static/images/o5.png"," Identity"," static/images/o3.png"," static/images/o5.png"," c"," c"," static/images/o3.png",7941,3479
"391",90,8,1480362683222,"3"," static/images/o6.png"," static/images/o6.png"," ConstantA"," static/images/o4.png"," static/images/o6.png"," c"," a"," static/images/o6.png",4705,5963
"392",90,9,1480362692097,"3"," static/images/o6.png"," static/images/o6.png"," ConstantA"," static/images/o1.png"," static/images/o1.png"," b"," a"," static/images/o6.png",7876,3694
"393",90,10,1480362697644,"3"," static/images/o6.png"," static/images/o6.png"," ConstantA"," static/images/o6.png"," static/images/o6.png"," a"," a"," static/images/o6.png",3601,17537
"401",3,8,1480362665992,"2"," static/images/o4.png"," static/images/o1.png"," ConstantB"," static/images/o5.png"," static/images/o4.png"," c"," c"," static/images/o5.png",18533,5679
"402",3,9,1480362671587,"2"," static/images/o4.png"," static/images/o1.png"," ConstantB"," static/images/o4.png"," static/images/o4.png"," a"," c"," static/images/o5.png",4575,3249
"403",3,10,1480362685975,"2"," static/images/o4.png"," static/images/o1.png"," ConstantB"," static/images/o1.png"," static/images/o1.png"," b"," b"," static/images/o1.png",4668,3873
"417",100,8,1480362777457,"2"," static/images/o3.png"," static/images/o6.png"," ConstantB"," static/images/o3.png"," static/images/o3.png"," a"," b"," static/images/o6.png",47633,8908
"418",100,9,1480362780814,"2"," static/images/o3.png"," static/images/o6.png"," ConstantB"," static/images/o6.png"," static/images/o6.png"," b"," b"," static/images/o6.png",2492,6449
"419",100,10,1480362786768,"2"," static/images/o3.png"," static/images/o6.png"," ConstantB"," static/images/o4.png"," static/images/o3.png"," c"," a"," static/images/o3.png",4133,4853
"427",11,8,1480362781577,"3"," static/images/o6.png"," static/images/o6.png"," ConstantA"," static/images/o5.png"," static/images/o6.png"," c"," b"," static/images/o1.png",7295,2239
"428",11,9,1480362788341,"3"," static/images/o6.png"," static/images/o6.png"," ConstantA"," static/images/o1.png"," static/images/o1.png"," b"," a"," static/images/o6.png",4213,5975
"429",11,10,1480362797978,"3"," static/images/o6.png"," static/images/o6.png"," ConstantA"," static/images/o6.png"," static/images/o6.png"," a"," a"," static/images/o6.png",3546,2992
"437",61,8,1480362855371,"1"," static/images/o3.png"," static/images/o2.png"," Negation"," static/images/o5.png"," static/images/o3.png"," d"," a"," static/images/o3.png",4508,3393
"438",61,9,1480362869210,"1"," static/images/o3.png"," static/images/o2.png"," Negation"," static/images/o6.png"," static/images/o3.png"," c"," d"," static/images/o5.png",7289,2770
"439",61,10,1480362875316,"1"," static/images/o3.png"," static/images/o2.png"," Negation"," static/images/o3.png"," static/images/o3.png"," a"," b"," static/images/o2.png",4912,4846
"440",61,11,1480362881577,"1"," static/images/o3.png"," static/images/o2.png"," Negation"," static/images/o2.png"," static/images/o2.png"," b"," a"," static/images/o3.png",5618,NA
"448",71,8,1480362897579,"4"," static/images/o6.png"," static/images/o6.png"," Identity"," static/images/o2.png"," static/images/o2.png"," b"," c"," static/images/o3.png",8765,4384
"449",71,9,1480362906086,"4"," static/images/o6.png"," static/images/o6.png"," Identity"," static/images/o6.png"," static/images/o6.png"," a"," a"," static/images/o6.png",6814,NA
"450",71,10,1480362909456,"4"," static/images/o6.png"," static/images/o6.png"," Identity"," static/images/o3.png"," static/images/o6.png"," c"," c"," static/images/o3.png",2592,15899
"458",74,8,1480363151071,"0"," static/images/o1.png"," static/images/o2.png"," Successor"," static/images/o2.png"," static/images/o2.png"," b"," c"," static/images/o4.png",9367,NA
"459",74,9,1480363163531,"0"," static/images/o1.png"," static/images/o2.png"," Successor"," static/images/o4.png"," static/images/o1.png"," c"," d"," static/images/o3.png",9126,15751
"460",74,10,1480363170474,"0"," static/images/o1.png"," static/images/o2.png"," Successor"," static/images/o1.png"," static/images/o1.png"," a"," b"," static/images/o2.png",5438,11102
"468",27,8,1480363103616,"1"," static/images/o6.png"," static/images/o4.png"," Negation"," static/images/o1.png"," static/images/o6.png"," d"," c"," static/images/o5.png",6913,6722
"469",27,9,1480363116688,"1"," static/images/o6.png"," static/images/o4.png"," Negation"," static/images/o5.png"," static/images/o6.png"," c"," d"," static/images/o1.png",7892,10364
"470",27,10,1480363120799,"1"," static/images/o6.png"," static/images/o4.png"," Negation"," static/images/o4.png"," static/images/o4.png"," b"," a"," static/images/o6.png",2788,9819
"471",27,11,1480363125597,"1"," static/images/o6.png"," static/images/o4.png"," Negation"," static/images/o6.png"," static/images/o6.png"," a"," b"," static/images/o4.png",3582,3222
"479",20,8,1480363208390,"0"," static/images/o6.png"," static/images/o2.png"," Successor"," static/images/o6.png"," static/images/o6.png"," a"," d"," static/images/o4.png",9498,3793
"480",20,9,1480363219095,"0"," static/images/o6.png"," static/images/o2.png"," Successor"," static/images/o2.png"," static/images/o2.png"," b"," c"," static/images/o5.png",8958,2976
"481",20,10,1480363230740,"0"," static/images/o6.png"," static/images/o2.png"," Successor"," static/images/o5.png"," static/images/o6.png"," c"," d"," static/images/o4.png",10160,8049
"489",38,8,1480363363540,"2"," static/images/o4.png"," static/images/o6.png"," ConstantB"," static/images/o1.png"," static/images/o4.png"," c"," a"," static/images/o4.png",15278,2516
"490",38,9,1480363372799,"2"," static/images/o4.png"," static/images/o6.png"," ConstantB"," static/images/o6.png"," static/images/o6.png"," b"," b"," static/images/o6.png",7475,2680
"491",38,10,1480363380604,"2"," static/images/o4.png"," static/images/o6.png"," ConstantB"," static/images/o4.png"," static/images/o4.png"," a"," b"," static/images/o6.png",5679,2571
"499",93,8,1480363478692,"4"," static/images/o1.png"," static/images/o1.png"," Identity"," static/images/o1.png"," static/images/o1.png"," a"," a"," static/images/o1.png",3893,7556
"500",93,9,1480363481740,"4"," static/images/o1.png"," static/images/o1.png"," Identity"," static/images/o5.png"," static/images/o5.png"," b"," b"," static/images/o5.png",1962,4529
"501",93,10,1480363485798,"4"," static/images/o1.png"," static/images/o1.png"," Identity"," static/images/o4.png"," static/images/o1.png"," c"," c"," static/images/o4.png",2961,6509
"509",7,8,1480363462605,"3"," static/images/o4.png"," static/images/o4.png"," ConstantA"," static/images/o4.png"," static/images/o4.png"," a"," a"," static/images/o4.png",6593,2920
"510",7,9,1480363467068,"3"," static/images/o4.png"," static/images/o4.png"," ConstantA"," static/images/o1.png"," static/images/o1.png"," b"," a"," static/images/o4.png",3480,4016
"511",7,10,1480363471777,"3"," static/images/o4.png"," static/images/o4.png"," ConstantA"," static/images/o3.png"," static/images/o4.png"," c"," a"," static/images/o4.png",4062,3348
"519",88,8,1480374139564,"0"," static/images/o4.png"," static/images/o2.png"," Successor"," static/images/o5.png"," static/images/o4.png"," c"," c"," static/images/o5.png",3547,2999
"520",88,9,1480374152472,"0"," static/images/o4.png"," static/images/o2.png"," Successor"," static/images/o4.png"," static/images/o4.png"," a"," d"," static/images/o6.png",5176,3392
"521",88,10,1480374156238,"0"," static/images/o4.png"," static/images/o2.png"," Successor"," static/images/o2.png"," static/images/o2.png"," b"," d"," static/images/o6.png",2651,1847
"529",24,8,1480363497679,"2"," static/images/o3.png"," static/images/o5.png"," ConstantB"," static/images/o3.png"," static/images/o3.png"," a"," c"," static/images/o1.png",4965,2249
"530",24,9,1480363501983,"2"," static/images/o3.png"," static/images/o5.png"," ConstantB"," static/images/o5.png"," static/images/o5.png"," b"," c"," static/images/o1.png",3041,48024
"531",24,10,1480363504785,"2"," static/images/o3.png"," static/images/o5.png"," ConstantB"," static/images/o1.png"," static/images/o3.png"," c"," b"," static/images/o5.png",2056,5200
"539",94,8,1480363593439,"4"," static/images/o2.png"," static/images/o2.png"," Identity"," static/images/o4.png"," static/images/o2.png"," c"," c"," static/images/o4.png",6409,3125
"540",94,9,1480363601558,"4"," static/images/o2.png"," static/images/o2.png"," Identity"," static/images/o5.png"," static/images/o5.png"," b"," b"," static/images/o5.png",6750,5840
"541",94,10,1480363606150,"4"," static/images/o2.png"," static/images/o2.png"," Identity"," static/images/o2.png"," static/images/o2.png"," a"," a"," static/images/o2.png",3270,3337
"549",98,8,1480363613960,"1"," static/images/o6.png"," static/images/o5.png"," Negation"," static/images/o2.png"," static/images/o6.png"," c"," d"," static/images/o3.png",4648,5046
"550",98,9,1480363618816,"1"," static/images/o6.png"," static/images/o5.png"," Negation"," static/images/o5.png"," static/images/o5.png"," b"," a"," static/images/o6.png",2695,2802
"551",98,10,1480363620985,"1"," static/images/o6.png"," static/images/o5.png"," Negation"," static/images/o6.png"," static/images/o6.png"," a"," b"," static/images/o5.png",1319,3857
"552",98,11,1480363623649,"1"," static/images/o6.png"," static/images/o5.png"," Negation"," static/images/o3.png"," static/images/o6.png"," d"," c"," static/images/o2.png",1616,NA
"566",64,8,1480364104876,"1"," static/images/o1.png"," static/images/o5.png"," Negation"," static/images/o6.png"," static/images/o1.png"," c"," d"," static/images/o4.png",4084,1628
"567",64,9,1480364111838,"1"," static/images/o1.png"," static/images/o5.png"," Negation"," static/images/o4.png"," static/images/o1.png"," d"," c"," static/images/o6.png",3171,NA
"568",64,10,1480364114348,"1"," static/images/o1.png"," static/images/o5.png"," Negation"," static/images/o1.png"," static/images/o1.png"," a"," b"," static/images/o5.png",1845,6579
"569",64,11,1480364117421,"1"," static/images/o1.png"," static/images/o5.png"," Negation"," static/images/o5.png"," static/images/o5.png"," b"," a"," static/images/o1.png",1731,4243
"577",53,8,1480364088541,"3"," static/images/o4.png"," static/images/o4.png"," ConstantA"," static/images/o4.png"," static/images/o4.png"," a"," a"," static/images/o4.png",6233,NA
"578",53,9,1480364122972,"3"," static/images/o4.png"," static/images/o4.png"," ConstantA"," static/images/o1.png"," static/images/o4.png"," c"," b"," static/images/o6.png",7105,7189
"579",53,10,1480364129164,"3"," static/images/o4.png"," static/images/o4.png"," ConstantA"," static/images/o6.png"," static/images/o6.png"," b"," a"," static/images/o4.png",4535,8011
"587",8,8,1480364102446,"2"," static/images/o5.png"," static/images/o4.png"," ConstantB"," static/images/o6.png"," static/images/o5.png"," c"," b"," static/images/o4.png",16199,NA
"588",8,9,1480364113916,"2"," static/images/o5.png"," static/images/o4.png"," ConstantB"," static/images/o5.png"," static/images/o5.png"," a"," b"," static/images/o4.png",10196,7585
"589",8,10,1480364117315,"2"," static/images/o5.png"," static/images/o4.png"," ConstantB"," static/images/o4.png"," static/images/o4.png"," b"," b"," static/images/o4.png",2730,3063
"597",78,8,1480364113160,"3"," static/images/o4.png"," static/images/o4.png"," ConstantA"," static/images/o3.png"," static/images/o4.png"," c"," b"," static/images/o1.png",6303,NA
"598",78,9,1480364121839,"3"," static/images/o4.png"," static/images/o4.png"," ConstantA"," static/images/o4.png"," static/images/o4.png"," a"," a"," static/images/o4.png",4202,5400
"599",78,10,1480364127760,"3"," static/images/o4.png"," static/images/o4.png"," ConstantA"," static/images/o1.png"," static/images/o1.png"," b"," a"," static/images/o4.png",2485,8747
"607",5,8,1480364207871,"2"," static/images/o2.png"," static/images/o4.png"," ConstantB"," static/images/o2.png"," static/images/o2.png"," a"," b"," static/images/o4.png",13632,NA
"608",5,9,1480364217623,"2"," static/images/o2.png"," static/images/o4.png"," ConstantB"," static/images/o6.png"," static/images/o2.png"," c"," a"," static/images/o2.png",8264,2700
"609",5,10,1480364224910,"2"," static/images/o2.png"," static/images/o4.png"," ConstantB"," static/images/o4.png"," static/images/o4.png"," b"," b"," static/images/o4.png",6599,4715
"617",75,8,1480364210077,"0"," static/images/o4.png"," static/images/o1.png"," Successor"," static/images/o4.png"," static/images/o4.png"," a"," b"," static/images/o1.png",6797,NA
"618",75,9,1480364214650,"0"," static/images/o4.png"," static/images/o1.png"," Successor"," static/images/o2.png"," static/images/o4.png"," c"," b"," static/images/o1.png",3716,2877
"619",75,10,1480364219557,"0"," static/images/o4.png"," static/images/o1.png"," Successor"," static/images/o1.png"," static/images/o1.png"," b"," c"," static/images/o2.png",3993,3776
"627",44,8,1480364474890,"4"," static/images/o2.png"," static/images/o2.png"," Identity"," static/images/o2.png"," static/images/o2.png"," a"," a"," static/images/o2.png",5158,NA
"628",44,9,1480364477970,"4"," static/images/o2.png"," static/images/o2.png"," Identity"," static/images/o1.png"," static/images/o1.png"," b"," b"," static/images/o1.png",2167,5734
"629",44,10,1480364480858,"4"," static/images/o2.png"," static/images/o2.png"," Identity"," static/images/o3.png"," static/images/o2.png"," c"," c"," static/images/o3.png",2005,4617
"637",97,8,1480364644690,"0"," static/images/o4.png"," static/images/o5.png"," Successor"," static/images/o5.png"," static/images/o5.png"," b"," c"," static/images/o2.png",3472,NA
"638",97,9,1480364656112,"0"," static/images/o4.png"," static/images/o5.png"," Successor"," static/images/o2.png"," static/images/o4.png"," c"," d"," static/images/o3.png",6418,9410
"639",97,10,1480364661061,"0"," static/images/o4.png"," static/images/o5.png"," Successor"," static/images/o4.png"," static/images/o4.png"," a"," b"," static/images/o5.png",3749,3011
"647",72,8,1480364593297,"1"," static/images/o1.png"," static/images/o4.png"," Negation"," static/images/o1.png"," static/images/o1.png"," a"," b"," static/images/o4.png",16383,NA
"648",72,9,1480364598912,"1"," static/images/o1.png"," static/images/o4.png"," Negation"," static/images/o5.png"," static/images/o1.png"," c"," d"," static/images/o2.png",3678,2195
"649",72,10,1480364601943,"1"," static/images/o1.png"," static/images/o4.png"," Negation"," static/images/o2.png"," static/images/o1.png"," d"," c"," static/images/o5.png",1984,4100
"650",72,11,1480364605927,"1"," static/images/o1.png"," static/images/o4.png"," Negation"," static/images/o4.png"," static/images/o4.png"," b"," a"," static/images/o1.png",2648,1766
"658",16,8,1480364712777,"1"," static/images/o2.png"," static/images/o1.png"," Negation"," static/images/o3.png"," static/images/o2.png"," d"," c"," static/images/o4.png",19051,10544
"659",16,9,1480364720493,"1"," static/images/o2.png"," static/images/o1.png"," Negation"," static/images/o1.png"," static/images/o1.png"," b"," a"," static/images/o2.png",6601,5032
"660",16,10,1480364724627,"1"," static/images/o2.png"," static/images/o1.png"," Negation"," static/images/o2.png"," static/images/o2.png"," a"," b"," static/images/o1.png",2496,3496
"661",16,11,1480364732282,"1"," static/images/o2.png"," static/images/o1.png"," Negation"," static/images/o4.png"," static/images/o2.png"," c"," b"," static/images/o1.png",5328,1815
"669",28,8,1480364661042,"2"," static/images/o5.png"," static/images/o4.png"," ConstantB"," static/images/o5.png"," static/images/o5.png"," a"," b"," static/images/o4.png",7304,2719
"670",28,9,1480364672273,"2"," static/images/o5.png"," static/images/o4.png"," ConstantB"," static/images/o2.png"," static/images/o5.png"," c"," c"," static/images/o2.png",8816,20422
"671",28,10,1480364677994,"2"," static/images/o5.png"," static/images/o4.png"," ConstantB"," static/images/o4.png"," static/images/o4.png"," b"," b"," static/images/o4.png",4103,2265
"679",76,8,1480364700436,"4"," static/images/o4.png"," static/images/o4.png"," Identity"," static/images/o4.png"," static/images/o4.png"," a"," a"," static/images/o4.png",7035,3778
"680",76,9,1480364707791,"4"," static/images/o4.png"," static/images/o4.png"," Identity"," static/images/o2.png"," static/images/o4.png"," c"," c"," static/images/o2.png",5654,2093
"681",76,10,1480364711771,"4"," static/images/o4.png"," static/images/o4.png"," Identity"," static/images/o1.png"," static/images/o1.png"," b"," b"," static/images/o1.png",2869,2664
"689",96,8,1480364784593,"3"," static/images/o6.png"," static/images/o6.png"," ConstantA"," static/images/o6.png"," static/images/o6.png"," a"," a"," static/images/o6.png",10585,4385
"690",96,9,1480364796305,"3"," static/images/o6.png"," static/images/o6.png"," ConstantA"," static/images/o3.png"," static/images/o6.png"," c"," b"," static/images/o1.png",9730,2304
"691",96,10,1480364804342,"3"," static/images/o6.png"," static/images/o6.png"," ConstantA"," static/images/o1.png"," static/images/o1.png"," b"," a"," static/images/o6.png",6867,1634
"699",92,8,1480364774327,"0"," static/images/o4.png"," static/images/o5.png"," Successor"," static/images/o5.png"," static/images/o5.png"," b"," c"," static/images/o6.png",8952,8139
"700",92,9,1480364779857,"0"," static/images/o4.png"," static/images/o5.png"," Successor"," static/images/o6.png"," static/images/o4.png"," c"," d"," static/images/o2.png",4715,2252
"701",92,10,1480364782846,"0"," static/images/o4.png"," static/images/o5.png"," Successor"," static/images/o4.png"," static/images/o4.png"," a"," b"," static/images/o5.png",2254,3241
"709",6,8,1480364758091,"3"," static/images/o6.png"," static/images/o6.png"," ConstantA"," static/images/o5.png"," static/images/o6.png"," c"," b"," static/images/o3.png",4343,4716
"710",6,9,1480364762171,"3"," static/images/o6.png"," static/images/o6.png"," ConstantA"," static/images/o6.png"," static/images/o6.png"," a"," a"," static/images/o6.png",2933,2630
"711",6,10,1480364765034,"3"," static/images/o6.png"," static/images/o6.png"," ConstantA"," static/images/o3.png"," static/images/o3.png"," b"," a"," static/images/o6.png",1927,2726
"719",43,8,1480364980462,"4"," static/images/o1.png"," static/images/o1.png"," Identity"," static/images/o5.png"," static/images/o1.png"," c"," c"," static/images/o5.png",3444,40486
"720",43,9,1480364986487,"4"," static/images/o1.png"," static/images/o1.png"," Identity"," static/images/o4.png"," static/images/o4.png"," b"," b"," static/images/o4.png",4733,1657
"721",43,10,1480364994781,"4"," static/images/o1.png"," static/images/o1.png"," Identity"," static/images/o1.png"," static/images/o1.png"," a"," a"," static/images/o1.png",7284,3745
"729",68,8,1480365077103,"1"," static/images/o3.png"," static/images/o5.png"," Negation"," static/images/o6.png"," static/images/o3.png"," c"," d"," static/images/o1.png",9349,4123
"730",68,9,1480365099518,"1"," static/images/o3.png"," static/images/o5.png"," Negation"," static/images/o3.png"," static/images/o3.png"," a"," a"," static/images/o3.png",19978,7049
"731",68,10,1480365106180,"1"," static/images/o3.png"," static/images/o5.png"," Negation"," static/images/o5.png"," static/images/o5.png"," b"," a"," static/images/o3.png",4832,5492
"732",68,11,1480365122698,"1"," static/images/o3.png"," static/images/o5.png"," Negation"," static/images/o1.png"," static/images/o3.png"," d"," b"," static/images/o5.png",9730,10768
"740",52,8,1480365098430,"0"," static/images/o6.png"," static/images/o3.png"," Successor"," static/images/o2.png"," static/images/o6.png"," c"," d"," static/images/o1.png",5814,6723
"741",52,9,1480365109807,"0"," static/images/o6.png"," static/images/o3.png"," Successor"," static/images/o6.png"," static/images/o6.png"," a"," b"," static/images/o3.png",9615,NA
"742",52,10,1480365118270,"0"," static/images/o6.png"," static/images/o3.png"," Successor"," static/images/o3.png"," static/images/o3.png"," b"," c"," static/images/o2.png",4955,1823
"750",13,8,1480365157865,"3"," static/images/o5.png"," static/images/o5.png"," ConstantA"," static/images/o4.png"," static/images/o4.png"," b"," a"," static/images/o5.png",15709,NA
"751",13,9,1480365168604,"3"," static/images/o5.png"," static/images/o5.png"," ConstantA"," static/images/o3.png"," static/images/o5.png"," c"," b"," static/images/o4.png",10199,6309
"752",13,10,1480365173246,"3"," static/images/o5.png"," static/images/o5.png"," ConstantA"," static/images/o5.png"," static/images/o5.png"," a"," a"," static/images/o5.png",2453,5027
"760",14,8,1480365277097,"2"," static/images/o1.png"," static/images/o4.png"," ConstantB"," static/images/o3.png"," static/images/o1.png"," c"," c"," static/images/o3.png",13169,5622
"761",14,9,1480365283458,"2"," static/images/o1.png"," static/images/o4.png"," ConstantB"," static/images/o4.png"," static/images/o4.png"," b"," b"," static/images/o4.png",5195,11879
"762",14,10,1480365290448,"2"," static/images/o1.png"," static/images/o4.png"," ConstantB"," static/images/o1.png"," static/images/o1.png"," a"," b"," static/images/o4.png",5616,4259
"770",49,8,1480365313470,"2"," static/images/o1.png"," static/images/o4.png"," ConstantB"," static/images/o4.png"," static/images/o4.png"," b"," b"," static/images/o4.png",3549,19086
"771",49,9,1480365323354,"2"," static/images/o1.png"," static/images/o4.png"," ConstantB"," static/images/o1.png"," static/images/o1.png"," a"," b"," static/images/o4.png",7804,3539
"772",49,10,1480365329156,"2"," static/images/o1.png"," static/images/o4.png"," ConstantB"," static/images/o2.png"," static/images/o1.png"," c"," a"," static/images/o1.png",4430,5941
"780",59,8,1480365616854,"0"," static/images/o6.png"," static/images/o1.png"," Successor"," static/images/o3.png"," static/images/o6.png"," c"," a"," static/images/o6.png",32502,4303
"781",59,9,1480365662934,"0"," static/images/o6.png"," static/images/o1.png"," Successor"," static/images/o1.png"," static/images/o1.png"," b"," a"," static/images/o6.png",43169,6992
"782",59,10,1480365689785,"0"," static/images/o6.png"," static/images/o1.png"," Successor"," static/images/o6.png"," static/images/o6.png"," a"," b"," static/images/o1.png",24138,14135
"796",87,8,1480365627971,"0"," static/images/o1.png"," static/images/o2.png"," Successor"," static/images/o1.png"," static/images/o1.png"," a"," b"," static/images/o2.png",14695,17570
"797",87,9,1480365637958,"0"," static/images/o1.png"," static/images/o2.png"," Successor"," static/images/o3.png"," static/images/o1.png"," c"," d"," static/images/o6.png",8679,5385
"798",87,10,1480365657438,"0"," static/images/o1.png"," static/images/o2.png"," Successor"," static/images/o2.png"," static/images/o2.png"," b"," c"," static/images/o3.png",18265,5010
"806",86,8,1480365686540,"1"," static/images/o4.png"," static/images/o2.png"," Negation"," static/images/o6.png"," static/images/o4.png"," d"," c"," static/images/o3.png",9671,9255
"807",86,9,1480365697579,"1"," static/images/o4.png"," static/images/o2.png"," Negation"," static/images/o3.png"," static/images/o4.png"," c"," d"," static/images/o6.png",8151,9661
"808",86,10,1480365706094,"1"," static/images/o4.png"," static/images/o2.png"," Negation"," static/images/o2.png"," static/images/o2.png"," b"," a"," static/images/o4.png",6296,4000
"809",86,11,1480365711456,"1"," static/images/o4.png"," static/images/o2.png"," Negation"," static/images/o4.png"," static/images/o4.png"," a"," b"," static/images/o2.png",3388,4920
"817",25,8,1480365826070,"4"," static/images/o4.png"," static/images/o4.png"," Identity"," static/images/o2.png"," static/images/o2.png"," b"," b"," static/images/o2.png",3901,5586
"818",25,9,1480365829619,"4"," static/images/o4.png"," static/images/o4.png"," Identity"," static/images/o4.png"," static/images/o4.png"," a"," a"," static/images/o4.png",1787,3666
"819",25,10,1480365832437,"4"," static/images/o4.png"," static/images/o4.png"," Identity"," static/images/o5.png"," static/images/o4.png"," c"," c"," static/images/o5.png",2209,16883
"827",10,8,1480365853917,"4"," static/images/o5.png"," static/images/o5.png"," Identity"," static/images/o5.png"," static/images/o5.png"," a"," a"," static/images/o5.png",4371,6244
"828",10,9,1480365858700,"4"," static/images/o5.png"," static/images/o5.png"," Identity"," static/images/o6.png"," static/images/o5.png"," c"," c"," static/images/o6.png",3415,4112
"829",10,10,1480365861642,"4"," static/images/o5.png"," static/images/o5.png"," Identity"," static/images/o1.png"," static/images/o1.png"," b"," b"," static/images/o1.png",2212,3095
"837",101,8,1480365969893,"4"," static/images/o6.png"," static/images/o6.png"," Identity"," static/images/o1.png"," static/images/o1.png"," b"," b"," static/images/o1.png",6437,13796
"838",101,9,1480365976995,"4"," static/images/o6.png"," static/images/o6.png"," Identity"," static/images/o6.png"," static/images/o6.png"," a"," a"," static/images/o6.png",3273,12427
"839",101,10,1480365983501,"4"," static/images/o6.png"," static/images/o6.png"," Identity"," static/images/o5.png"," static/images/o6.png"," c"," c"," static/images/o5.png",3491,11114
"847",26,8,1480366171284,"3"," static/images/o3.png"," static/images/o3.png"," ConstantA"," static/images/o3.png"," static/images/o3.png"," a"," a"," static/images/o3.png",7187,6538
"848",26,9,1480366179285,"3"," static/images/o3.png"," static/images/o3.png"," ConstantA"," static/images/o6.png"," static/images/o3.png"," c"," a"," static/images/o3.png",6141,4597
"849",26,10,1480366190500,"3"," static/images/o3.png"," static/images/o3.png"," ConstantA"," static/images/o4.png"," static/images/o4.png"," b"," a"," static/images/o3.png",9297,NA
"857",66,8,1480366338988,"2"," static/images/o1.png"," static/images/o6.png"," ConstantB"," static/images/o1.png"," static/images/o1.png"," a"," b"," static/images/o6.png",9050,3185
"858",66,9,1480366345857,"2"," static/images/o1.png"," static/images/o6.png"," ConstantB"," static/images/o6.png"," static/images/o6.png"," b"," b"," static/images/o6.png",3908,5070
"859",66,10,1480366355349,"2"," static/images/o1.png"," static/images/o6.png"," ConstantB"," static/images/o2.png"," static/images/o1.png"," c"," a"," static/images/o1.png",7277,4353
"867",17,8,1480366709069,"0"," static/images/o1.png"," static/images/o4.png"," Successor"," static/images/o1.png"," static/images/o1.png"," a"," b"," static/images/o4.png",13795,7530
"868",17,9,1480366719588,"0"," static/images/o1.png"," static/images/o4.png"," Successor"," static/images/o3.png"," static/images/o1.png"," c"," d"," static/images/o5.png",9392,6114
"869",17,10,1480366731203,"0"," static/images/o1.png"," static/images/o4.png"," Successor"," static/images/o4.png"," static/images/o4.png"," b"," c"," static/images/o3.png",10462,4886
"877",22,8,1480366928295,"1"," static/images/o5.png"," static/images/o2.png"," Negation"," static/images/o3.png"," static/images/o5.png"," c"," d"," static/images/o4.png",5847,2220
"878",22,9,1480366937063,"1"," static/images/o5.png"," static/images/o2.png"," Negation"," static/images/o4.png"," static/images/o5.png"," d"," c"," static/images/o3.png",3064,3507
"879",22,10,1480366941669,"1"," static/images/o5.png"," static/images/o2.png"," Negation"," static/images/o2.png"," static/images/o2.png"," b"," a"," static/images/o5.png",2728,2455
"880",22,11,1480366945766,"1"," static/images/o5.png"," static/images/o2.png"," Negation"," static/images/o5.png"," static/images/o5.png"," a"," b"," static/images/o2.png",2207,1510
"888",4,8,1480366814943,"3"," static/images/o4.png"," static/images/o4.png"," ConstantA"," static/images/o3.png"," static/images/o3.png"," b"," c"," static/images/o1.png",6313,2032
"889",4,9,1480366825285,"3"," static/images/o4.png"," static/images/o4.png"," ConstantA"," static/images/o4.png"," static/images/o4.png"," a"," a"," static/images/o4.png",9060,1835
"890",4,10,1480366831261,"3"," static/images/o4.png"," static/images/o4.png"," ConstantA"," static/images/o1.png"," static/images/o4.png"," c"," b"," static/images/o3.png",4696,3258
"898",47,8,1480367237577,"0"," static/images/o6.png"," static/images/o1.png"," Successor"," static/images/o1.png"," static/images/o1.png"," b"," d"," static/images/o5.png",4151,4290
"899",47,9,1480367242931,"0"," static/images/o6.png"," static/images/o1.png"," Successor"," static/images/o6.png"," static/images/o6.png"," a"," b"," static/images/o1.png",3407,6929
"900",47,10,1480367247420,"0"," static/images/o6.png"," static/images/o1.png"," Successor"," static/images/o3.png"," static/images/o6.png"," c"," a"," static/images/o6.png",3711,NA
"908",69,8,1480367538384,"2"," static/images/o3.png"," static/images/o2.png"," ConstantB"," static/images/o3.png"," static/images/o3.png"," a"," b"," static/images/o2.png",8394,3806
"909",69,9,1480367547727,"2"," static/images/o3.png"," static/images/o2.png"," ConstantB"," static/images/o2.png"," static/images/o2.png"," b"," b"," static/images/o2.png",2442,NA
"910",69,10,1480367551673,"2"," static/images/o3.png"," static/images/o2.png"," ConstantB"," static/images/o1.png"," static/images/o3.png"," c"," c"," static/images/o1.png",3172,4944
"918",32,8,1480367588828,"1"," static/images/o5.png"," static/images/o2.png"," Negation"," static/images/o3.png"," static/images/o5.png"," c"," a"," static/images/o5.png",9353,NA
"919",32,9,1480367596845,"1"," static/images/o5.png"," static/images/o2.png"," Negation"," static/images/o4.png"," static/images/o5.png"," d"," b"," static/images/o2.png",6611,7095
"920",32,10,1480367603937,"1"," static/images/o5.png"," static/images/o2.png"," Negation"," static/images/o2.png"," static/images/o2.png"," b"," a"," static/images/o5.png",5841,6960
"921",32,11,1480367607518,"1"," static/images/o5.png"," static/images/o2.png"," Negation"," static/images/o5.png"," static/images/o5.png"," a"," b"," static/images/o2.png",2347,7344
"929",34,8,1480367875831,"3"," static/images/o4.png"," static/images/o4.png"," ConstantA"," static/images/o2.png"," static/images/o4.png"," c"," a"," static/images/o4.png",6511,9752
"930",34,9,1480367886174,"3"," static/images/o4.png"," static/images/o4.png"," ConstantA"," static/images/o4.png"," static/images/o4.png"," a"," a"," static/images/o4.png",9081,4665
"931",34,10,1480367891831,"3"," static/images/o4.png"," static/images/o4.png"," ConstantA"," static/images/o1.png"," static/images/o1.png"," b"," a"," static/images/o4.png",4367,13087
"939",58,8,1480368010790,"3"," static/images/o5.png"," static/images/o5.png"," ConstantA"," static/images/o3.png"," static/images/o5.png"," c"," a"," static/images/o5.png",11511,5541
"940",58,9,1480368024056,"3"," static/images/o5.png"," static/images/o5.png"," ConstantA"," static/images/o2.png"," static/images/o2.png"," b"," a"," static/images/o5.png",9313,2981
"941",58,10,1480368029105,"3"," static/images/o5.png"," static/images/o5.png"," ConstantA"," static/images/o5.png"," static/images/o5.png"," a"," a"," static/images/o5.png",2663,3066
"951",51,8,1480368062622,"4"," static/images/o4.png"," static/images/o4.png"," Identity"," static/images/o2.png"," static/images/o2.png"," b"," b"," static/images/o2.png",3782,3701
"952",51,9,1480368067706,"4"," static/images/o4.png"," static/images/o4.png"," Identity"," static/images/o1.png"," static/images/o4.png"," c"," c"," static/images/o1.png",3382,6254
"953",51,10,1480368072596,"4"," static/images/o4.png"," static/images/o4.png"," Identity"," static/images/o4.png"," static/images/o4.png"," a"," a"," static/images/o4.png",2898,3177
"961",57,8,1480368064234,"2"," static/images/o6.png"," static/images/o3.png"," ConstantB"," static/images/o5.png"," static/images/o6.png"," c"," a"," static/images/o6.png",6145,1796
"962",57,9,1480368070220,"2"," static/images/o6.png"," static/images/o3.png"," ConstantB"," static/images/o6.png"," static/images/o6.png"," a"," b"," static/images/o3.png",4841,6537
"963",57,10,1480368073901,"2"," static/images/o6.png"," static/images/o3.png"," ConstantB"," static/images/o3.png"," static/images/o3.png"," b"," b"," static/images/o3.png",2808,NA
"971",46,8,1480368096942,"0"," static/images/o4.png"," static/images/o5.png"," Successor"," static/images/o5.png"," static/images/o5.png"," b"," c"," static/images/o1.png",9697,3211
"972",46,9,1480368107723,"0"," static/images/o4.png"," static/images/o5.png"," Successor"," static/images/o1.png"," static/images/o4.png"," c"," d"," static/images/o3.png",8472,NA
"973",46,10,1480368111668,"0"," static/images/o4.png"," static/images/o5.png"," Successor"," static/images/o4.png"," static/images/o4.png"," a"," b"," static/images/o5.png",2587,9510
"1001",65,8,1480368750517,"4"," static/images/o2.png"," static/images/o2.png"," Identity"," static/images/o1.png"," static/images/o1.png"," b"," b"," static/images/o1.png",12013,4968
"1002",65,9,1480368758747,"4"," static/images/o2.png"," static/images/o2.png"," Identity"," static/images/o6.png"," static/images/o2.png"," c"," c"," static/images/o6.png",5883,5671
"1003",65,10,1480368764769,"4"," static/images/o2.png"," static/images/o2.png"," Identity"," static/images/o2.png"," static/images/o2.png"," a"," a"," static/images/o2.png",4531,3317
"1011",67,8,1480368919366,"1"," static/images/o4.png"," static/images/o6.png"," Negation"," static/images/o1.png"," static/images/o4.png"," c"," d"," static/images/o3.png",13973,4232
"1012",67,9,1480368926590,"1"," static/images/o4.png"," static/images/o6.png"," Negation"," static/images/o3.png"," static/images/o4.png"," d"," a"," static/images/o4.png",5986,2520
"1013",67,10,1480368938058,"1"," static/images/o4.png"," static/images/o6.png"," Negation"," static/images/o6.png"," static/images/o6.png"," b"," a"," static/images/o4.png",9817,2593
"1014",67,11,1480368943040,"1"," static/images/o4.png"," static/images/o6.png"," Negation"," static/images/o4.png"," static/images/o4.png"," a"," b"," static/images/o6.png",3838,5956
"1022",42,8,1480369303772,"0"," static/images/o6.png"," static/images/o4.png"," Successor"," static/images/o4.png"," static/images/o4.png"," b"," c"," static/images/o3.png",11594,3060
"1023",42,9,1480369308761,"0"," static/images/o6.png"," static/images/o4.png"," Successor"," static/images/o3.png"," static/images/o6.png"," c"," d"," static/images/o2.png",3945,2383
"1024",42,10,1480369315645,"0"," static/images/o6.png"," static/images/o4.png"," Successor"," static/images/o6.png"," static/images/o6.png"," a"," b"," static/images/o4.png",5934,9574
"1032",80,8,1480369450750,"1"," static/images/o3.png"," static/images/o6.png"," Negation"," static/images/o3.png"," static/images/o3.png"," a"," d"," static/images/o5.png",18247,3258
"1033",80,9,1480369460947,"1"," static/images/o3.png"," static/images/o6.png"," Negation"," static/images/o5.png"," static/images/o3.png"," d"," b"," static/images/o6.png",8263,2692
"1034",80,10,1480369474423,"1"," static/images/o3.png"," static/images/o6.png"," Negation"," static/images/o2.png"," static/images/o3.png"," c"," c"," static/images/o2.png",3682,3510
"1035",80,11,1480369480654,"1"," static/images/o3.png"," static/images/o6.png"," Negation"," static/images/o6.png"," static/images/o6.png"," b"," a"," static/images/o3.png",3897,NA
"1043",81,8,1480369726834,"4"," static/images/o2.png"," static/images/o2.png"," Identity"," static/images/o6.png"," static/images/o6.png"," b"," b"," static/images/o6.png",21235,2367
"1044",81,9,1480369736006,"4"," static/images/o2.png"," static/images/o2.png"," Identity"," static/images/o4.png"," static/images/o2.png"," c"," c"," static/images/o4.png",6851,NA
"1045",81,10,1480369740759,"4"," static/images/o2.png"," static/images/o2.png"," Identity"," static/images/o2.png"," static/images/o2.png"," a"," a"," static/images/o2.png",3145,198322
"1059",29,8,1480370639206,"4"," static/images/o5.png"," static/images/o5.png"," Identity"," static/images/o6.png"," static/images/o6.png"," b"," b"," static/images/o6.png",3447,4561
"1060",29,9,1480370643230,"4"," static/images/o5.png"," static/images/o5.png"," Identity"," static/images/o5.png"," static/images/o5.png"," a"," a"," static/images/o5.png",2232,2303
"1061",29,10,1480370648237,"4"," static/images/o5.png"," static/images/o5.png"," Identity"," static/images/o1.png"," static/images/o5.png"," c"," c"," static/images/o1.png",4023,3491
"1075",33,8,1480370874513,"0"," static/images/o1.png"," static/images/o2.png"," Successor"," static/images/o2.png"," static/images/o2.png"," b"," c"," static/images/o4.png",16534,878
"1076",33,9,1480370882287,"0"," static/images/o1.png"," static/images/o2.png"," Successor"," static/images/o1.png"," static/images/o1.png"," a"," b"," static/images/o2.png",5557,708
"1077",33,10,1480370897639,"0"," static/images/o1.png"," static/images/o2.png"," Successor"," static/images/o4.png"," static/images/o1.png"," c"," a"," static/images/o1.png",11695,947
"1085",62,8,1480371162426,"3"," static/images/o6.png"," static/images/o6.png"," ConstantA"," static/images/o6.png"," static/images/o6.png"," a"," a"," static/images/o6.png",6307,5203
"1086",62,9,1480371168008,"3"," static/images/o6.png"," static/images/o6.png"," ConstantA"," static/images/o2.png"," static/images/o2.png"," b"," a"," static/images/o6.png",3795,6072
"1087",62,10,1480371176940,"3"," static/images/o6.png"," static/images/o6.png"," ConstantA"," static/images/o1.png"," static/images/o6.png"," c"," b"," static/images/o2.png",7247,12383
"1095",79,8,1480371099367,"4"," static/images/o1.png"," static/images/o1.png"," Identity"," static/images/o2.png"," static/images/o1.png"," c"," c"," static/images/o2.png",4839,3020
"1096",79,9,1480371113892,"4"," static/images/o1.png"," static/images/o1.png"," Identity"," static/images/o3.png"," static/images/o3.png"," b"," b"," static/images/o3.png",4028,2093
"1097",79,10,1480371118734,"4"," static/images/o1.png"," static/images/o1.png"," Identity"," static/images/o1.png"," static/images/o1.png"," a"," a"," static/images/o1.png",3675,5652
"1105",70,8,1480371295360,"2"," static/images/o6.png"," static/images/o3.png"," ConstantB"," static/images/o6.png"," static/images/o6.png"," a"," b"," static/images/o3.png",7460,2517
"1106",70,9,1480371306928,"2"," static/images/o6.png"," static/images/o3.png"," ConstantB"," static/images/o4.png"," static/images/o6.png"," c"," a"," static/images/o6.png",7840,7734
"1107",70,10,1480371319550,"2"," static/images/o6.png"," static/images/o3.png"," ConstantB"," static/images/o3.png"," static/images/o3.png"," b"," a"," static/images/o6.png",6619,NA
