"","WorkerID","Trial","TimeStamp","Condition","Argument1","Argument2","Correct","ConditionID","Testarg1","Testarg2","Question","Response","ResponseImage","RT"
"91",43,2,1474660760715,1," static/images/o1.png"," static/images/o1.png"," static/images/o5.png"," a a b"," static/images/o1.png"," static/images/o3.png"," a c"," b"," static/images/o5.png",4680
"92",43,3,1474660766241,1," static/images/o1.png"," static/images/o1.png"," static/images/o5.png"," a a b"," static/images/o5.png"," static/images/o3.png"," b c"," a"," static/images/o1.png",4159
"93",43,4,1474660775289,1," static/images/o1.png"," static/images/o1.png"," static/images/o5.png"," a a b"," static/images/o1.png"," static/images/o5.png"," a b"," c"," static/images/o3.png",8352
"94",43,5,1474660778771,1," static/images/o1.png"," static/images/o1.png"," static/images/o5.png"," a a b"," static/images/o5.png"," static/images/o1.png"," b a"," c"," static/images/o3.png",2834
"95",43,6,1474660783217,1," static/images/o1.png"," static/images/o1.png"," static/images/o5.png"," a a b"," static/images/o3.png"," static/images/o1.png"," c a"," b"," static/images/o5.png",3777
"96",43,7,1474660786873,1," static/images/o1.png"," static/images/o1.png"," static/images/o5.png"," a a b"," static/images/o1.png"," static/images/o1.png"," a a"," b"," static/images/o5.png",2831
"97",43,8,1474660790065,1," static/images/o1.png"," static/images/o1.png"," static/images/o5.png"," a a b"," static/images/o3.png"," static/images/o5.png"," c b"," a"," static/images/o1.png",2701
"98",43,9,1474660798072,1," static/images/o1.png"," static/images/o1.png"," static/images/o5.png"," a a b"," static/images/o5.png"," static/images/o5.png"," b b"," b"," static/images/o5.png",6758
"100",208,2,1474660733565,1," static/images/o6.png"," static/images/o6.png"," static/images/o3.png"," a a b"," static/images/o6.png"," static/images/o6.png"," a a"," b"," static/images/o3.png",7233
"101",208,3,1474660751747,1," static/images/o6.png"," static/images/o6.png"," static/images/o3.png"," a a b"," static/images/o6.png"," static/images/o2.png"," a c"," c"," static/images/o2.png",16369
"102",208,4,1474660767876,1," static/images/o6.png"," static/images/o6.png"," static/images/o3.png"," a a b"," static/images/o6.png"," static/images/o3.png"," a b"," a"," static/images/o6.png",14896
"103",208,5,1474660772023,1," static/images/o6.png"," static/images/o6.png"," static/images/o3.png"," a a b"," static/images/o2.png"," static/images/o6.png"," c a"," c"," static/images/o2.png",3656
"104",208,6,1474660775853,1," static/images/o6.png"," static/images/o6.png"," static/images/o3.png"," a a b"," static/images/o3.png"," static/images/o2.png"," b c"," a"," static/images/o6.png",3016
"105",208,7,1474660783898,1," static/images/o6.png"," static/images/o6.png"," static/images/o3.png"," a a b"," static/images/o2.png"," static/images/o3.png"," c b"," a"," static/images/o6.png",6707
"106",208,8,1474660787254,1," static/images/o6.png"," static/images/o6.png"," static/images/o3.png"," a a b"," static/images/o3.png"," static/images/o6.png"," b a"," c"," static/images/o2.png",2800
"107",208,9,1474660792626,1," static/images/o6.png"," static/images/o6.png"," static/images/o3.png"," a a b"," static/images/o3.png"," static/images/o3.png"," b b"," a"," static/images/o6.png",3872
"109",113,2,1474660845250,1," static/images/o2.png"," static/images/o2.png"," static/images/o3.png"," a a b"," static/images/o3.png"," static/images/o3.png"," b b"," c"," static/images/o1.png",29025
"110",113,3,1474660860313,1," static/images/o2.png"," static/images/o2.png"," static/images/o3.png"," a a b"," static/images/o2.png"," static/images/o3.png"," a b"," c"," static/images/o1.png",12536
"111",113,4,1474660873752,1," static/images/o2.png"," static/images/o2.png"," static/images/o3.png"," a a b"," static/images/o3.png"," static/images/o1.png"," b c"," b"," static/images/o3.png",12059
"112",113,5,1474660886866,1," static/images/o2.png"," static/images/o2.png"," static/images/o3.png"," a a b"," static/images/o2.png"," static/images/o2.png"," a a"," b"," static/images/o3.png",6045
"113",113,6,1474660895158,1," static/images/o2.png"," static/images/o2.png"," static/images/o3.png"," a a b"," static/images/o3.png"," static/images/o2.png"," b a"," c"," static/images/o1.png",5957
"114",113,7,1474660905857,1," static/images/o2.png"," static/images/o2.png"," static/images/o3.png"," a a b"," static/images/o1.png"," static/images/o3.png"," c b"," a"," static/images/o2.png",8310
"115",113,8,1474660912344,1," static/images/o2.png"," static/images/o2.png"," static/images/o3.png"," a a b"," static/images/o2.png"," static/images/o1.png"," a c"," b"," static/images/o3.png",5597
"116",80,2,1474660816571,1," static/images/o3.png"," static/images/o3.png"," static/images/o2.png"," a a b"," static/images/o3.png"," static/images/o3.png"," a a"," c"," static/images/o5.png",6426
"117",80,3,1474660824179,1," static/images/o3.png"," static/images/o3.png"," static/images/o2.png"," a a b"," static/images/o2.png"," static/images/o3.png"," b a"," c"," static/images/o5.png",6003
"118",80,4,1474660833311,1," static/images/o3.png"," static/images/o3.png"," static/images/o2.png"," a a b"," static/images/o3.png"," static/images/o2.png"," a b"," c"," static/images/o5.png",7455
"119",80,5,1474660840065,1," static/images/o3.png"," static/images/o3.png"," static/images/o2.png"," a a b"," static/images/o5.png"," static/images/o2.png"," c b"," a"," static/images/o3.png",4872
"120",80,6,1474660844895,1," static/images/o3.png"," static/images/o3.png"," static/images/o2.png"," a a b"," static/images/o3.png"," static/images/o5.png"," a c"," b"," static/images/o2.png",3501
"121",80,7,1474660849783,1," static/images/o3.png"," static/images/o3.png"," static/images/o2.png"," a a b"," static/images/o5.png"," static/images/o3.png"," c a"," b"," static/images/o2.png",3691
"122",80,8,1474660855920,1," static/images/o3.png"," static/images/o3.png"," static/images/o2.png"," a a b"," static/images/o2.png"," static/images/o5.png"," b c"," a"," static/images/o3.png",4526
"123",80,9,1474660860036,1," static/images/o3.png"," static/images/o3.png"," static/images/o2.png"," a a b"," static/images/o2.png"," static/images/o2.png"," b b"," a"," static/images/o3.png",3340
"125",189,2,1474660849848,1," static/images/o2.png"," static/images/o2.png"," static/images/o1.png"," a a b"," static/images/o1.png"," static/images/o1.png"," b b"," b"," static/images/o1.png",3060
"126",189,3,1474660886497,1," static/images/o2.png"," static/images/o2.png"," static/images/o1.png"," a a b"," static/images/o2.png"," static/images/o6.png"," a c"," c"," static/images/o6.png",19281
"127",189,4,1474660899188,1," static/images/o2.png"," static/images/o2.png"," static/images/o1.png"," a a b"," static/images/o1.png"," static/images/o6.png"," b c"," a"," static/images/o2.png",11622
"128",189,5,1474660910540,1," static/images/o2.png"," static/images/o2.png"," static/images/o1.png"," a a b"," static/images/o6.png"," static/images/o2.png"," c a"," c"," static/images/o6.png",10247
"129",189,6,1474660926132,1," static/images/o2.png"," static/images/o2.png"," static/images/o1.png"," a a b"," static/images/o6.png"," static/images/o1.png"," c b"," a"," static/images/o2.png",14209
"130",189,7,1474660934548,1," static/images/o2.png"," static/images/o2.png"," static/images/o1.png"," a a b"," static/images/o2.png"," static/images/o1.png"," a b"," c"," static/images/o6.png",7471
"131",189,8,1474660942028,1," static/images/o2.png"," static/images/o2.png"," static/images/o1.png"," a a b"," static/images/o1.png"," static/images/o2.png"," b a"," c"," static/images/o6.png",6749
"132",189,9,1474660948159,1," static/images/o2.png"," static/images/o2.png"," static/images/o1.png"," a a b"," static/images/o2.png"," static/images/o2.png"," a a"," b"," static/images/o1.png",5431
"134",107,2,1474661059012,1," static/images/o3.png"," static/images/o3.png"," static/images/o4.png"," a a b"," static/images/o3.png"," static/images/o6.png"," a c"," b"," static/images/o4.png",12224
"135",107,3,1474661068210,1," static/images/o3.png"," static/images/o3.png"," static/images/o4.png"," a a b"," static/images/o6.png"," static/images/o3.png"," c a"," b"," static/images/o4.png",8030
"136",107,4,1474661079882,1," static/images/o3.png"," static/images/o3.png"," static/images/o4.png"," a a b"," static/images/o4.png"," static/images/o6.png"," b c"," a"," static/images/o3.png",9928
"137",107,5,1474661085721,1," static/images/o3.png"," static/images/o3.png"," static/images/o4.png"," a a b"," static/images/o6.png"," static/images/o4.png"," c b"," a"," static/images/o3.png",4735
"138",107,6,1474661090267,1," static/images/o3.png"," static/images/o3.png"," static/images/o4.png"," a a b"," static/images/o3.png"," static/images/o4.png"," a b"," c"," static/images/o6.png",3914
"139",107,7,1474661097404,1," static/images/o3.png"," static/images/o3.png"," static/images/o4.png"," a a b"," static/images/o4.png"," static/images/o4.png"," b b"," b"," static/images/o4.png",4699
"140",107,8,1474661100994,1," static/images/o3.png"," static/images/o3.png"," static/images/o4.png"," a a b"," static/images/o4.png"," static/images/o3.png"," b a"," c"," static/images/o6.png",2751
"141",107,9,1474661119601,1," static/images/o3.png"," static/images/o3.png"," static/images/o4.png"," a a b"," static/images/o3.png"," static/images/o3.png"," a a"," b"," static/images/o4.png",17768
"143",159,2,1474661175516,1," static/images/o4.png"," static/images/o4.png"," static/images/o3.png"," a a b"," static/images/o3.png"," static/images/o1.png"," b c"," a"," static/images/o4.png",18784
"144",159,3,1474661192242,1," static/images/o4.png"," static/images/o4.png"," static/images/o3.png"," a a b"," static/images/o4.png"," static/images/o3.png"," a b"," a"," static/images/o4.png",14719
"145",159,4,1474661206059,1," static/images/o4.png"," static/images/o4.png"," static/images/o3.png"," a a b"," static/images/o1.png"," static/images/o4.png"," c a"," b"," static/images/o3.png",12880
"146",159,5,1474661221453,1," static/images/o4.png"," static/images/o4.png"," static/images/o3.png"," a a b"," static/images/o3.png"," static/images/o3.png"," b b"," a"," static/images/o4.png",13807
"147",159,6,1474661228934,1," static/images/o4.png"," static/images/o4.png"," static/images/o3.png"," a a b"," static/images/o4.png"," static/images/o1.png"," a c"," b"," static/images/o3.png",6386
"148",159,7,1474661234031,1," static/images/o4.png"," static/images/o4.png"," static/images/o3.png"," a a b"," static/images/o4.png"," static/images/o4.png"," a a"," b"," static/images/o3.png",4204
"149",159,8,1474661243099,1," static/images/o4.png"," static/images/o4.png"," static/images/o3.png"," a a b"," static/images/o1.png"," static/images/o3.png"," c b"," a"," static/images/o4.png",6645
"150",159,9,1474661248548,1," static/images/o4.png"," static/images/o4.png"," static/images/o3.png"," a a b"," static/images/o3.png"," static/images/o4.png"," b a"," a"," static/images/o4.png",4117
"152",18,2,1474661991363,1," static/images/o3.png"," static/images/o3.png"," static/images/o2.png"," a a b"," static/images/o3.png"," static/images/o4.png"," a c"," c"," static/images/o4.png",10591
"153",18,3,1474661995389,1," static/images/o3.png"," static/images/o3.png"," static/images/o2.png"," a a b"," static/images/o4.png"," static/images/o2.png"," c b"," c"," static/images/o4.png",3152
"154",18,4,1474662006100,1," static/images/o3.png"," static/images/o3.png"," static/images/o2.png"," a a b"," static/images/o2.png"," static/images/o4.png"," b c"," a"," static/images/o3.png",3392
"155",18,5,1474662009195,1," static/images/o3.png"," static/images/o3.png"," static/images/o2.png"," a a b"," static/images/o4.png"," static/images/o3.png"," c a"," b"," static/images/o2.png",2536
"156",18,6,1474662012460,1," static/images/o3.png"," static/images/o3.png"," static/images/o2.png"," a a b"," static/images/o3.png"," static/images/o2.png"," a b"," c"," static/images/o4.png",2449
"157",18,7,1474662016788,1," static/images/o3.png"," static/images/o3.png"," static/images/o2.png"," a a b"," static/images/o2.png"," static/images/o2.png"," b b"," a"," static/images/o3.png",3831
"158",18,8,1474662022093,1," static/images/o3.png"," static/images/o3.png"," static/images/o2.png"," a a b"," static/images/o3.png"," static/images/o3.png"," a a"," b"," static/images/o2.png",4834
"159",18,9,1474662024804,1," static/images/o3.png"," static/images/o3.png"," static/images/o2.png"," a a b"," static/images/o2.png"," static/images/o3.png"," b a"," c"," static/images/o4.png",1897
"161",166,2,1474662492853,1," static/images/o5.png"," static/images/o5.png"," static/images/o1.png"," a a b"," static/images/o1.png"," static/images/o6.png"," b c"," c"," static/images/o6.png",5060
"162",166,3,1474662499163,1," static/images/o5.png"," static/images/o5.png"," static/images/o1.png"," a a b"," static/images/o1.png"," static/images/o1.png"," b b"," b"," static/images/o1.png",5031
"163",166,4,1474662502690,1," static/images/o5.png"," static/images/o5.png"," static/images/o1.png"," a a b"," static/images/o5.png"," static/images/o6.png"," a c"," b"," static/images/o1.png",2386
"164",166,5,1474662505595,1," static/images/o5.png"," static/images/o5.png"," static/images/o1.png"," a a b"," static/images/o1.png"," static/images/o5.png"," b a"," c"," static/images/o6.png",1861
"165",166,6,1474662508277,1," static/images/o5.png"," static/images/o5.png"," static/images/o1.png"," a a b"," static/images/o6.png"," static/images/o5.png"," c a"," b"," static/images/o1.png",2020
"166",166,7,1474662513798,1," static/images/o5.png"," static/images/o5.png"," static/images/o1.png"," a a b"," static/images/o5.png"," static/images/o1.png"," a b"," c"," static/images/o6.png",4507
"167",166,8,1474662517394,1," static/images/o5.png"," static/images/o5.png"," static/images/o1.png"," a a b"," static/images/o5.png"," static/images/o5.png"," a a"," c"," static/images/o6.png",2894
"168",166,9,1474662520474,1," static/images/o5.png"," static/images/o5.png"," static/images/o1.png"," a a b"," static/images/o6.png"," static/images/o1.png"," c b"," c"," static/images/o6.png",2363
"170",194,2,1474662829625,1," static/images/o3.png"," static/images/o3.png"," static/images/o6.png"," a a b"," static/images/o4.png"," static/images/o6.png"," c b"," c"," static/images/o4.png",8921
"171",194,3,1474662835919,1," static/images/o3.png"," static/images/o3.png"," static/images/o6.png"," a a b"," static/images/o4.png"," static/images/o3.png"," c a"," a"," static/images/o3.png",5855
"172",194,4,1474662837937,1," static/images/o3.png"," static/images/o3.png"," static/images/o6.png"," a a b"," static/images/o6.png"," static/images/o6.png"," b b"," b"," static/images/o6.png",1690
"173",194,5,1474662840031,1," static/images/o3.png"," static/images/o3.png"," static/images/o6.png"," a a b"," static/images/o6.png"," static/images/o4.png"," b c"," c"," static/images/o4.png",1760
"174",194,6,1474662842183,1," static/images/o3.png"," static/images/o3.png"," static/images/o6.png"," a a b"," static/images/o3.png"," static/images/o3.png"," a a"," b"," static/images/o6.png",1656
"175",194,7,1474662844439,1," static/images/o3.png"," static/images/o3.png"," static/images/o6.png"," a a b"," static/images/o6.png"," static/images/o3.png"," b a"," b"," static/images/o6.png",1832
"176",194,8,1474662846503,1," static/images/o3.png"," static/images/o3.png"," static/images/o6.png"," a a b"," static/images/o3.png"," static/images/o6.png"," a b"," b"," static/images/o6.png",1496
"177",194,9,1474662850607,1," static/images/o3.png"," static/images/o3.png"," static/images/o6.png"," a a b"," static/images/o3.png"," static/images/o4.png"," a c"," c"," static/images/o4.png",2943
"188",153,2,1474896352311,2," static/images/o1.png"," static/images/o5.png"," static/images/o1.png"," a b a"," static/images/o1.png"," static/images/o2.png"," a c"," a"," static/images/o1.png",11664
"189",153,3,1474896368236,2," static/images/o1.png"," static/images/o5.png"," static/images/o1.png"," a b a"," static/images/o1.png"," static/images/o1.png"," a a"," a"," static/images/o1.png",12243
"190",153,4,1474896384325,2," static/images/o1.png"," static/images/o5.png"," static/images/o1.png"," a b a"," static/images/o2.png"," static/images/o5.png"," c b"," c"," static/images/o2.png",14502
"191",153,5,1474896392676,2," static/images/o1.png"," static/images/o5.png"," static/images/o1.png"," a b a"," static/images/o5.png"," static/images/o2.png"," b c"," b"," static/images/o5.png",6769
"192",153,6,1474896401435,2," static/images/o1.png"," static/images/o5.png"," static/images/o1.png"," a b a"," static/images/o5.png"," static/images/o1.png"," b a"," b"," static/images/o5.png",7126
"193",153,7,1474896413488,2," static/images/o1.png"," static/images/o5.png"," static/images/o1.png"," a b a"," static/images/o1.png"," static/images/o5.png"," a b"," a"," static/images/o1.png",10540
"194",153,8,1474896424778,2," static/images/o1.png"," static/images/o5.png"," static/images/o1.png"," a b a"," static/images/o2.png"," static/images/o1.png"," c a"," c"," static/images/o2.png",9785
"195",153,9,1474896430308,2," static/images/o1.png"," static/images/o5.png"," static/images/o1.png"," a b a"," static/images/o5.png"," static/images/o5.png"," b b"," b"," static/images/o5.png",4238
"197",199,2,1474896388525,2," static/images/o3.png"," static/images/o2.png"," static/images/o3.png"," a b a"," static/images/o3.png"," static/images/o2.png"," a b"," a"," static/images/o3.png",17495
"198",199,3,1474896400366,2," static/images/o3.png"," static/images/o2.png"," static/images/o3.png"," a b a"," static/images/o3.png"," static/images/o3.png"," a a"," a"," static/images/o3.png",5335
"199",199,4,1474896417709,2," static/images/o3.png"," static/images/o2.png"," static/images/o3.png"," a b a"," static/images/o2.png"," static/images/o4.png"," b c"," c"," static/images/o4.png",14602
"200",199,5,1474896422032,2," static/images/o3.png"," static/images/o2.png"," static/images/o3.png"," a b a"," static/images/o2.png"," static/images/o2.png"," b b"," b"," static/images/o2.png",2819
"201",199,6,1474896427871,2," static/images/o3.png"," static/images/o2.png"," static/images/o3.png"," a b a"," static/images/o4.png"," static/images/o2.png"," c b"," c"," static/images/o4.png",4641
"202",199,7,1474896435175,2," static/images/o3.png"," static/images/o2.png"," static/images/o3.png"," a b a"," static/images/o4.png"," static/images/o3.png"," c a"," a"," static/images/o3.png",6384
"203",199,8,1474896440961,2," static/images/o3.png"," static/images/o2.png"," static/images/o3.png"," a b a"," static/images/o2.png"," static/images/o3.png"," b a"," a"," static/images/o3.png",4732
"204",199,9,1474896448756,2," static/images/o3.png"," static/images/o2.png"," static/images/o3.png"," a b a"," static/images/o3.png"," static/images/o4.png"," a c"," a"," static/images/o3.png",6556
"206",104,2,1474896393933,2," static/images/o1.png"," static/images/o2.png"," static/images/o1.png"," a b a"," static/images/o1.png"," static/images/o3.png"," a c"," a"," static/images/o1.png",8768
"207",104,3,1474896399443,2," static/images/o1.png"," static/images/o2.png"," static/images/o1.png"," a b a"," static/images/o2.png"," static/images/o3.png"," b c"," a"," static/images/o1.png",4925
"208",104,4,1474896402654,2," static/images/o1.png"," static/images/o2.png"," static/images/o1.png"," a b a"," static/images/o2.png"," static/images/o2.png"," b b"," b"," static/images/o2.png",2488
"209",104,5,1474896407265,2," static/images/o1.png"," static/images/o2.png"," static/images/o1.png"," a b a"," static/images/o2.png"," static/images/o1.png"," b a"," b"," static/images/o2.png",4153
"210",104,6,1474896410019,2," static/images/o1.png"," static/images/o2.png"," static/images/o1.png"," a b a"," static/images/o1.png"," static/images/o1.png"," a a"," a"," static/images/o1.png",2053
"211",104,7,1474896412158,2," static/images/o1.png"," static/images/o2.png"," static/images/o1.png"," a b a"," static/images/o3.png"," static/images/o2.png"," c b"," c"," static/images/o3.png",1701
"212",104,8,1474896414141,2," static/images/o1.png"," static/images/o2.png"," static/images/o1.png"," a b a"," static/images/o3.png"," static/images/o1.png"," c a"," c"," static/images/o3.png",1598
"213",104,9,1474896416931,2," static/images/o1.png"," static/images/o2.png"," static/images/o1.png"," a b a"," static/images/o1.png"," static/images/o2.png"," a b"," a"," static/images/o1.png",1837
"215",1,2,1474896430068,2," static/images/o2.png"," static/images/o5.png"," static/images/o2.png"," a b a"," static/images/o5.png"," static/images/o2.png"," b a"," a"," static/images/o2.png",3191
"216",1,3,1474896443618,2," static/images/o2.png"," static/images/o5.png"," static/images/o2.png"," a b a"," static/images/o2.png"," static/images/o5.png"," a b"," a"," static/images/o2.png",8417
"217",1,4,1474896449241,2," static/images/o2.png"," static/images/o5.png"," static/images/o2.png"," a b a"," static/images/o6.png"," static/images/o5.png"," c b"," c"," static/images/o6.png",4745
"218",1,5,1474896452544,2," static/images/o2.png"," static/images/o5.png"," static/images/o2.png"," a b a"," static/images/o5.png"," static/images/o5.png"," b b"," b"," static/images/o5.png",2239
"219",1,6,1474896455208,2," static/images/o2.png"," static/images/o5.png"," static/images/o2.png"," a b a"," static/images/o5.png"," static/images/o6.png"," b c"," b"," static/images/o5.png",2038
"220",1,7,1474896457355,2," static/images/o2.png"," static/images/o5.png"," static/images/o2.png"," a b a"," static/images/o2.png"," static/images/o2.png"," a a"," a"," static/images/o2.png",1586
"221",1,8,1474896460060,2," static/images/o2.png"," static/images/o5.png"," static/images/o2.png"," a b a"," static/images/o6.png"," static/images/o2.png"," c a"," c"," static/images/o6.png",1963
"222",1,9,1474896462701,2," static/images/o2.png"," static/images/o5.png"," static/images/o2.png"," a b a"," static/images/o2.png"," static/images/o6.png"," a c"," a"," static/images/o2.png",1985
"224",228,2,1474896912682,2," static/images/o3.png"," static/images/o6.png"," static/images/o3.png"," a b a"," static/images/o5.png"," static/images/o6.png"," c b"," c"," static/images/o5.png",5452
"225",228,3,1474896922703,2," static/images/o3.png"," static/images/o6.png"," static/images/o3.png"," a b a"," static/images/o3.png"," static/images/o5.png"," a c"," a"," static/images/o3.png",5022
"226",228,4,1474896931268,2," static/images/o3.png"," static/images/o6.png"," static/images/o3.png"," a b a"," static/images/o6.png"," static/images/o5.png"," b c"," b"," static/images/o6.png",6305
"227",228,5,1474896935054,2," static/images/o3.png"," static/images/o6.png"," static/images/o3.png"," a b a"," static/images/o5.png"," static/images/o3.png"," c a"," c"," static/images/o5.png",3015
"228",228,6,1474896942000,2," static/images/o3.png"," static/images/o6.png"," static/images/o3.png"," a b a"," static/images/o3.png"," static/images/o6.png"," a b"," a"," static/images/o3.png",6079
"229",228,7,1474896947593,2," static/images/o3.png"," static/images/o6.png"," static/images/o3.png"," a b a"," static/images/o3.png"," static/images/o3.png"," a a"," a"," static/images/o3.png",4772
"230",228,8,1474896951906,2," static/images/o3.png"," static/images/o6.png"," static/images/o3.png"," a b a"," static/images/o6.png"," static/images/o3.png"," b a"," b"," static/images/o6.png",2894
"231",228,9,1474896957794,2," static/images/o3.png"," static/images/o6.png"," static/images/o3.png"," a b a"," static/images/o6.png"," static/images/o6.png"," b b"," b"," static/images/o6.png",4412
"233",148,2,1474897655114,2," static/images/o2.png"," static/images/o6.png"," static/images/o2.png"," a b a"," static/images/o6.png"," static/images/o2.png"," b a"," c"," static/images/o4.png",8950
"234",148,3,1474897662961,2," static/images/o2.png"," static/images/o6.png"," static/images/o2.png"," a b a"," static/images/o2.png"," static/images/o6.png"," a b"," a"," static/images/o2.png",6824
"235",148,4,1474897667426,2," static/images/o2.png"," static/images/o6.png"," static/images/o2.png"," a b a"," static/images/o6.png"," static/images/o6.png"," b b"," b"," static/images/o6.png",3894
"236",148,5,1474897675617,2," static/images/o2.png"," static/images/o6.png"," static/images/o2.png"," a b a"," static/images/o4.png"," static/images/o2.png"," c a"," b"," static/images/o6.png",7384
"237",148,6,1474897680585,2," static/images/o2.png"," static/images/o6.png"," static/images/o2.png"," a b a"," static/images/o4.png"," static/images/o6.png"," c b"," a"," static/images/o2.png",4400
"238",148,7,1474897688033,2," static/images/o2.png"," static/images/o6.png"," static/images/o2.png"," a b a"," static/images/o2.png"," static/images/o2.png"," a a"," b"," static/images/o6.png",6640
"239",148,8,1474897693673,2," static/images/o2.png"," static/images/o6.png"," static/images/o2.png"," a b a"," static/images/o6.png"," static/images/o4.png"," b c"," b"," static/images/o6.png",5143
"240",148,9,1474897698193,2," static/images/o2.png"," static/images/o6.png"," static/images/o2.png"," a b a"," static/images/o2.png"," static/images/o4.png"," a c"," b"," static/images/o6.png",3520
"242",155,2,1474898636391,2," static/images/o5.png"," static/images/o1.png"," static/images/o5.png"," a b a"," static/images/o5.png"," static/images/o5.png"," a a"," b"," static/images/o1.png",8634
"243",155,3,1474898643201,2," static/images/o5.png"," static/images/o1.png"," static/images/o5.png"," a b a"," static/images/o1.png"," static/images/o1.png"," b b"," c"," static/images/o3.png",5892
"244",155,4,1474898651271,2," static/images/o5.png"," static/images/o1.png"," static/images/o5.png"," a b a"," static/images/o1.png"," static/images/o3.png"," b c"," b"," static/images/o1.png",6836
"245",155,5,1474898655820,2," static/images/o5.png"," static/images/o1.png"," static/images/o5.png"," a b a"," static/images/o3.png"," static/images/o1.png"," c b"," c"," static/images/o3.png",3375
"246",155,6,1474898662008,2," static/images/o5.png"," static/images/o1.png"," static/images/o5.png"," a b a"," static/images/o5.png"," static/images/o3.png"," a c"," c"," static/images/o3.png",5441
"247",155,7,1474898667930,2," static/images/o5.png"," static/images/o1.png"," static/images/o5.png"," a b a"," static/images/o3.png"," static/images/o5.png"," c a"," a"," static/images/o5.png",5331
"248",155,8,1474898671825,2," static/images/o5.png"," static/images/o1.png"," static/images/o5.png"," a b a"," static/images/o1.png"," static/images/o5.png"," b a"," b"," static/images/o1.png",3396
"249",155,9,1474898676200,2," static/images/o5.png"," static/images/o1.png"," static/images/o5.png"," a b a"," static/images/o5.png"," static/images/o1.png"," a b"," a"," static/images/o5.png",3516
"251",184,2,1474899858199,2," static/images/o5.png"," static/images/o2.png"," static/images/o5.png"," a b a"," static/images/o5.png"," static/images/o5.png"," a a"," a"," static/images/o5.png",9783
"252",184,3,1474899870359,2," static/images/o5.png"," static/images/o2.png"," static/images/o5.png"," a b a"," static/images/o5.png"," static/images/o3.png"," a c"," a"," static/images/o5.png",9610
"253",184,4,1474899878056,2," static/images/o5.png"," static/images/o2.png"," static/images/o5.png"," a b a"," static/images/o3.png"," static/images/o5.png"," c a"," c"," static/images/o3.png",6450
"254",184,5,1474899882460,2," static/images/o5.png"," static/images/o2.png"," static/images/o5.png"," a b a"," static/images/o2.png"," static/images/o3.png"," b c"," b"," static/images/o2.png",2910
"255",184,6,1474899887332,2," static/images/o5.png"," static/images/o2.png"," static/images/o5.png"," a b a"," static/images/o3.png"," static/images/o2.png"," c b"," c"," static/images/o3.png",3152
"256",184,7,1474899892401,2," static/images/o5.png"," static/images/o2.png"," static/images/o5.png"," a b a"," static/images/o2.png"," static/images/o5.png"," b a"," b"," static/images/o2.png",3112
"257",184,8,1474899897721,2," static/images/o5.png"," static/images/o2.png"," static/images/o5.png"," a b a"," static/images/o5.png"," static/images/o2.png"," a b"," a"," static/images/o5.png",3687
"258",184,9,1474899901851,2," static/images/o5.png"," static/images/o2.png"," static/images/o5.png"," a b a"," static/images/o2.png"," static/images/o2.png"," b b"," b"," static/images/o2.png",2083
"260",139,2,1474903360349,2," static/images/o2.png"," static/images/o3.png"," static/images/o2.png"," a b a"," static/images/o3.png"," static/images/o3.png"," b b"," b"," static/images/o3.png",5151
"261",139,3,1474903366396,2," static/images/o2.png"," static/images/o3.png"," static/images/o2.png"," a b a"," static/images/o3.png"," static/images/o2.png"," b a"," a"," static/images/o2.png",4632
"262",139,4,1474903370705,2," static/images/o2.png"," static/images/o3.png"," static/images/o2.png"," a b a"," static/images/o2.png"," static/images/o3.png"," a b"," a"," static/images/o2.png",3597
"263",139,5,1474903376092,2," static/images/o2.png"," static/images/o3.png"," static/images/o2.png"," a b a"," static/images/o2.png"," static/images/o5.png"," a c"," a"," static/images/o2.png",4111
"264",139,6,1474903381093,2," static/images/o2.png"," static/images/o3.png"," static/images/o2.png"," a b a"," static/images/o2.png"," static/images/o2.png"," a a"," a"," static/images/o2.png",4272
"265",139,7,1474903385172,2," static/images/o2.png"," static/images/o3.png"," static/images/o2.png"," a b a"," static/images/o5.png"," static/images/o3.png"," c b"," c"," static/images/o5.png",3432
"266",139,8,1474903389068,2," static/images/o2.png"," static/images/o3.png"," static/images/o2.png"," a b a"," static/images/o3.png"," static/images/o5.png"," b c"," b"," static/images/o3.png",3208
"267",139,9,1474903393380,2," static/images/o2.png"," static/images/o3.png"," static/images/o2.png"," a b a"," static/images/o5.png"," static/images/o2.png"," c a"," a"," static/images/o2.png",3672
"279",96,2,1474905691530,3," static/images/o2.png"," static/images/o1.png"," static/images/o1.png"," a b b"," static/images/o2.png"," static/images/o1.png"," a b"," b"," static/images/o1.png",2319
"280",96,3,1474905697478,3," static/images/o2.png"," static/images/o1.png"," static/images/o1.png"," a b b"," static/images/o4.png"," static/images/o2.png"," c a"," b"," static/images/o1.png",4978
"281",96,4,1474905719336,3," static/images/o2.png"," static/images/o1.png"," static/images/o1.png"," a b b"," static/images/o1.png"," static/images/o2.png"," b a"," b"," static/images/o1.png",5215
"282",96,5,1474905726596,3," static/images/o2.png"," static/images/o1.png"," static/images/o1.png"," a b b"," static/images/o1.png"," static/images/o1.png"," b b"," a"," static/images/o2.png",6032
"283",96,6,1474905733116,3," static/images/o2.png"," static/images/o1.png"," static/images/o1.png"," a b b"," static/images/o1.png"," static/images/o4.png"," b c"," a"," static/images/o2.png",5654
"284",96,7,1474905738527,3," static/images/o2.png"," static/images/o1.png"," static/images/o1.png"," a b b"," static/images/o2.png"," static/images/o4.png"," a c"," c"," static/images/o4.png",2457
"285",96,8,1474905743087,3," static/images/o2.png"," static/images/o1.png"," static/images/o1.png"," a b b"," static/images/o4.png"," static/images/o1.png"," c b"," a"," static/images/o2.png",3011
"286",96,9,1474905746339,3," static/images/o2.png"," static/images/o1.png"," static/images/o1.png"," a b b"," static/images/o2.png"," static/images/o2.png"," a a"," a"," static/images/o2.png",2688
"288",106,2,1474905734472,3," static/images/o3.png"," static/images/o1.png"," static/images/o1.png"," a b b"," static/images/o1.png"," static/images/o1.png"," b b"," b"," static/images/o1.png",8000
"289",106,3,1474905741359,3," static/images/o3.png"," static/images/o1.png"," static/images/o1.png"," a b b"," static/images/o3.png"," static/images/o2.png"," a c"," c"," static/images/o2.png",5147
"290",106,4,1474905745937,3," static/images/o3.png"," static/images/o1.png"," static/images/o1.png"," a b b"," static/images/o3.png"," static/images/o3.png"," a a"," a"," static/images/o3.png",2722
"291",106,5,1474905754880,3," static/images/o3.png"," static/images/o1.png"," static/images/o1.png"," a b b"," static/images/o3.png"," static/images/o1.png"," a b"," b"," static/images/o1.png",8304
"292",106,6,1474905760696,3," static/images/o3.png"," static/images/o1.png"," static/images/o1.png"," a b b"," static/images/o1.png"," static/images/o3.png"," b a"," b"," static/images/o1.png",4865
"293",106,7,1474905774631,3," static/images/o3.png"," static/images/o1.png"," static/images/o1.png"," a b b"," static/images/o2.png"," static/images/o1.png"," c b"," b"," static/images/o1.png",12927
"294",106,8,1474905784935,3," static/images/o3.png"," static/images/o1.png"," static/images/o1.png"," a b b"," static/images/o1.png"," static/images/o2.png"," b c"," c"," static/images/o2.png",8625
"295",106,9,1474905790311,3," static/images/o3.png"," static/images/o1.png"," static/images/o1.png"," a b b"," static/images/o2.png"," static/images/o3.png"," c a"," c"," static/images/o2.png",3550
"306",219,2,1474906053411,3," static/images/o4.png"," static/images/o2.png"," static/images/o2.png"," a b b"," static/images/o4.png"," static/images/o4.png"," a a"," b"," static/images/o2.png",13479
"307",219,3,1474906062914,3," static/images/o4.png"," static/images/o2.png"," static/images/o2.png"," a b b"," static/images/o6.png"," static/images/o4.png"," c a"," a"," static/images/o4.png",5991
"308",219,4,1474906076162,3," static/images/o4.png"," static/images/o2.png"," static/images/o2.png"," a b b"," static/images/o6.png"," static/images/o2.png"," c b"," c"," static/images/o6.png",12240
"309",219,5,1474906082545,3," static/images/o4.png"," static/images/o2.png"," static/images/o2.png"," a b b"," static/images/o2.png"," static/images/o6.png"," b c"," c"," static/images/o6.png",5584
"310",219,6,1474906087209,3," static/images/o4.png"," static/images/o2.png"," static/images/o2.png"," a b b"," static/images/o2.png"," static/images/o2.png"," b b"," a"," static/images/o4.png",3632
"311",219,7,1474906094186,3," static/images/o4.png"," static/images/o2.png"," static/images/o2.png"," a b b"," static/images/o4.png"," static/images/o6.png"," a c"," c"," static/images/o6.png",5713
"312",219,8,1474906101418,3," static/images/o4.png"," static/images/o2.png"," static/images/o2.png"," a b b"," static/images/o4.png"," static/images/o2.png"," a b"," b"," static/images/o2.png",5153
"313",219,9,1474906108962,3," static/images/o4.png"," static/images/o2.png"," static/images/o2.png"," a b b"," static/images/o2.png"," static/images/o4.png"," b a"," b"," static/images/o2.png",6705
"315",112,2,1474906171914,3," static/images/o4.png"," static/images/o1.png"," static/images/o1.png"," a b b"," static/images/o5.png"," static/images/o1.png"," c b"," a"," static/images/o4.png",6412
"316",112,3,1474906177264,3," static/images/o4.png"," static/images/o1.png"," static/images/o1.png"," a b b"," static/images/o4.png"," static/images/o1.png"," a b"," c"," static/images/o5.png",2784
"317",112,4,1474906183052,3," static/images/o4.png"," static/images/o1.png"," static/images/o1.png"," a b b"," static/images/o1.png"," static/images/o5.png"," b c"," b"," static/images/o1.png",4314
"318",112,5,1474906187301,3," static/images/o4.png"," static/images/o1.png"," static/images/o1.png"," a b b"," static/images/o4.png"," static/images/o4.png"," a a"," a"," static/images/o4.png",3300
"319",112,6,1474906194254,3," static/images/o4.png"," static/images/o1.png"," static/images/o1.png"," a b b"," static/images/o4.png"," static/images/o5.png"," a c"," c"," static/images/o5.png",6448
"320",112,7,1474906198150,3," static/images/o4.png"," static/images/o1.png"," static/images/o1.png"," a b b"," static/images/o1.png"," static/images/o4.png"," b a"," b"," static/images/o1.png",3295
"321",112,8,1474906201527,3," static/images/o4.png"," static/images/o1.png"," static/images/o1.png"," a b b"," static/images/o1.png"," static/images/o1.png"," b b"," b"," static/images/o1.png",2592
"322",112,9,1474906205519,3," static/images/o4.png"," static/images/o1.png"," static/images/o1.png"," a b b"," static/images/o5.png"," static/images/o4.png"," c a"," c"," static/images/o5.png",3136
"324",145,2,1474906120467,3," static/images/o5.png"," static/images/o4.png"," static/images/o4.png"," a b b"," static/images/o5.png"," static/images/o5.png"," a a"," b"," static/images/o4.png",8344
"325",145,3,1474906126099,3," static/images/o5.png"," static/images/o4.png"," static/images/o4.png"," a b b"," static/images/o4.png"," static/images/o5.png"," b a"," c"," static/images/o3.png",4436
"326",145,4,1474906133594,3," static/images/o5.png"," static/images/o4.png"," static/images/o4.png"," a b b"," static/images/o4.png"," static/images/o3.png"," b c"," b"," static/images/o4.png",6593
"327",145,5,1474906141292,3," static/images/o5.png"," static/images/o4.png"," static/images/o4.png"," a b b"," static/images/o3.png"," static/images/o5.png"," c a"," a"," static/images/o5.png",7192
"328",145,6,1474906146642,3," static/images/o5.png"," static/images/o4.png"," static/images/o4.png"," a b b"," static/images/o4.png"," static/images/o4.png"," b b"," c"," static/images/o3.png",4783
"329",145,7,1474906151237,3," static/images/o5.png"," static/images/o4.png"," static/images/o4.png"," a b b"," static/images/o5.png"," static/images/o3.png"," a c"," a"," static/images/o5.png",3585
"330",145,8,1474906157371,3," static/images/o5.png"," static/images/o4.png"," static/images/o4.png"," a b b"," static/images/o5.png"," static/images/o4.png"," a b"," b"," static/images/o4.png",3801
"331",145,9,1474906164215,3," static/images/o5.png"," static/images/o4.png"," static/images/o4.png"," a b b"," static/images/o3.png"," static/images/o4.png"," c b"," c"," static/images/o3.png",6006
"333",85,2,1474906330069,3," static/images/o6.png"," static/images/o3.png"," static/images/o3.png"," a b b"," static/images/o3.png"," static/images/o4.png"," b c"," a"," static/images/o6.png",7340
"334",85,3,1474906337947,3," static/images/o6.png"," static/images/o3.png"," static/images/o3.png"," a b b"," static/images/o6.png"," static/images/o4.png"," a c"," b"," static/images/o3.png",6864
"335",85,4,1474906342149,3," static/images/o6.png"," static/images/o3.png"," static/images/o3.png"," a b b"," static/images/o6.png"," static/images/o6.png"," a a"," a"," static/images/o6.png",3560
"336",85,5,1474906345264,3," static/images/o6.png"," static/images/o3.png"," static/images/o3.png"," a b b"," static/images/o3.png"," static/images/o3.png"," b b"," b"," static/images/o3.png",2579
"337",85,6,1474906349754,3," static/images/o6.png"," static/images/o3.png"," static/images/o3.png"," a b b"," static/images/o6.png"," static/images/o3.png"," a b"," b"," static/images/o3.png",3891
"338",85,7,1474906356331,3," static/images/o6.png"," static/images/o3.png"," static/images/o3.png"," a b b"," static/images/o4.png"," static/images/o3.png"," c b"," a"," static/images/o6.png",5949
"339",85,8,1474906360653,3," static/images/o6.png"," static/images/o3.png"," static/images/o3.png"," a b b"," static/images/o3.png"," static/images/o6.png"," b a"," b"," static/images/o3.png",3552
"340",85,9,1474906364832,3," static/images/o6.png"," static/images/o3.png"," static/images/o3.png"," a b b"," static/images/o4.png"," static/images/o6.png"," c a"," b"," static/images/o3.png",3556
"342",41,2,1474906783488,3," static/images/o3.png"," static/images/o2.png"," static/images/o2.png"," a b b"," static/images/o2.png"," static/images/o3.png"," b a"," b"," static/images/o2.png",13491
"343",41,3,1474906795194,3," static/images/o3.png"," static/images/o2.png"," static/images/o2.png"," a b b"," static/images/o6.png"," static/images/o3.png"," c a"," c"," static/images/o6.png",10505
"344",41,4,1474906807269,3," static/images/o3.png"," static/images/o2.png"," static/images/o2.png"," a b b"," static/images/o3.png"," static/images/o6.png"," a c"," c"," static/images/o6.png",11158
"345",41,5,1474906811211,3," static/images/o3.png"," static/images/o2.png"," static/images/o2.png"," a b b"," static/images/o3.png"," static/images/o3.png"," a a"," a"," static/images/o3.png",3151
"346",41,6,1474906824891,3," static/images/o3.png"," static/images/o2.png"," static/images/o2.png"," a b b"," static/images/o6.png"," static/images/o2.png"," c b"," b"," static/images/o2.png",13097
"347",41,7,1474906829081,3," static/images/o3.png"," static/images/o2.png"," static/images/o2.png"," a b b"," static/images/o3.png"," static/images/o2.png"," a b"," b"," static/images/o2.png",3479
"348",41,8,1474906833719,3," static/images/o3.png"," static/images/o2.png"," static/images/o2.png"," a b b"," static/images/o2.png"," static/images/o2.png"," b b"," b"," static/images/o2.png",4120
"349",41,9,1474906838693,3," static/images/o3.png"," static/images/o2.png"," static/images/o2.png"," a b b"," static/images/o2.png"," static/images/o6.png"," b c"," b"," static/images/o2.png",4344
"351",10,2,1474908325251,3," static/images/o3.png"," static/images/o5.png"," static/images/o5.png"," a b b"," static/images/o1.png"," static/images/o5.png"," c b"," b"," static/images/o5.png",7926
"352",10,3,1474908333980,3," static/images/o3.png"," static/images/o5.png"," static/images/o5.png"," a b b"," static/images/o1.png"," static/images/o3.png"," c a"," a"," static/images/o3.png",7447
"353",10,4,1474908339044,3," static/images/o3.png"," static/images/o5.png"," static/images/o5.png"," a b b"," static/images/o3.png"," static/images/o3.png"," a a"," c"," static/images/o1.png",3689
"354",10,5,1474908343615,3," static/images/o3.png"," static/images/o5.png"," static/images/o5.png"," a b b"," static/images/o3.png"," static/images/o5.png"," a b"," c"," static/images/o1.png",3354
"355",10,6,1474908351825,3," static/images/o3.png"," static/images/o5.png"," static/images/o5.png"," a b b"," static/images/o5.png"," static/images/o3.png"," b a"," b"," static/images/o5.png",5963
"356",10,7,1474908357208,3," static/images/o3.png"," static/images/o5.png"," static/images/o5.png"," a b b"," static/images/o3.png"," static/images/o1.png"," a c"," c"," static/images/o1.png",3694
"357",10,8,1474908376040,3," static/images/o3.png"," static/images/o5.png"," static/images/o5.png"," a b b"," static/images/o5.png"," static/images/o5.png"," b b"," a"," static/images/o3.png",17537
"358",10,9,1474908379298,3," static/images/o3.png"," static/images/o5.png"," static/images/o5.png"," a b b"," static/images/o5.png"," static/images/o1.png"," b c"," b"," static/images/o5.png",2288
"360",111,2,1474909723830,3," static/images/o5.png"," static/images/o3.png"," static/images/o3.png"," a b b"," static/images/o4.png"," static/images/o3.png"," c b"," b"," static/images/o3.png",10599
"361",111,3,1474909733420,3," static/images/o5.png"," static/images/o3.png"," static/images/o3.png"," a b b"," static/images/o3.png"," static/images/o4.png"," b c"," b"," static/images/o3.png",7399
"362",111,4,1474909739188,3," static/images/o5.png"," static/images/o3.png"," static/images/o3.png"," a b b"," static/images/o5.png"," static/images/o5.png"," a a"," a"," static/images/o5.png",4841
"363",111,5,1474909750855,3," static/images/o5.png"," static/images/o3.png"," static/images/o3.png"," a b b"," static/images/o4.png"," static/images/o5.png"," c a"," c"," static/images/o4.png",10698
"364",111,6,1474909755444,3," static/images/o5.png"," static/images/o3.png"," static/images/o3.png"," a b b"," static/images/o5.png"," static/images/o3.png"," a b"," b"," static/images/o3.png",3736
"365",111,7,1474909762355,3," static/images/o5.png"," static/images/o3.png"," static/images/o3.png"," a b b"," static/images/o5.png"," static/images/o4.png"," a c"," c"," static/images/o4.png",5679
"366",111,8,1474909766381,3," static/images/o5.png"," static/images/o3.png"," static/images/o3.png"," a b b"," static/images/o3.png"," static/images/o5.png"," b a"," b"," static/images/o3.png",3249
"367",111,9,1474909771301,3," static/images/o5.png"," static/images/o3.png"," static/images/o3.png"," a b b"," static/images/o3.png"," static/images/o3.png"," b b"," b"," static/images/o3.png",3873
"369",119,2,1474915028438,4," static/images/o6.png"," static/images/o2.png"," static/images/o3.png"," a b c"," static/images/o6.png"," static/images/o6.png"," a a"," a"," static/images/o6.png",5396
"370",119,3,1474915034507,4," static/images/o6.png"," static/images/o2.png"," static/images/o3.png"," a b c"," static/images/o2.png"," static/images/o6.png"," b a"," c"," static/images/o3.png",4821
"371",119,4,1474915045116,4," static/images/o6.png"," static/images/o2.png"," static/images/o3.png"," a b c"," static/images/o2.png"," static/images/o2.png"," b b"," b"," static/images/o2.png",9655
"372",119,5,1474915055589,4," static/images/o6.png"," static/images/o2.png"," static/images/o3.png"," a b c"," static/images/o3.png"," static/images/o6.png"," c a"," d"," static/images/o5.png",8908
"373",119,6,1474915063073,4," static/images/o6.png"," static/images/o2.png"," static/images/o3.png"," a b c"," static/images/o3.png"," static/images/o2.png"," c b"," d"," static/images/o5.png",6449
"374",119,7,1474915068965,4," static/images/o6.png"," static/images/o2.png"," static/images/o3.png"," a b c"," static/images/o6.png"," static/images/o3.png"," a c"," d"," static/images/o5.png",4853
"375",119,8,1474915074486,4," static/images/o6.png"," static/images/o2.png"," static/images/o3.png"," a b c"," static/images/o6.png"," static/images/o2.png"," a b"," c"," static/images/o3.png",4785
"376",119,9,1474915080637,4," static/images/o6.png"," static/images/o2.png"," static/images/o3.png"," a b c"," static/images/o2.png"," static/images/o3.png"," b c"," d"," static/images/o5.png",5362
"378",21,2,1474915015741,4," static/images/o4.png"," static/images/o5.png"," static/images/o1.png"," a b c"," static/images/o4.png"," static/images/o4.png"," a a"," d"," static/images/o3.png",8455
"379",21,3,1474915021876,4," static/images/o4.png"," static/images/o5.png"," static/images/o1.png"," a b c"," static/images/o1.png"," static/images/o5.png"," c b"," d"," static/images/o3.png",4307
"380",21,4,1474915030734,4," static/images/o4.png"," static/images/o5.png"," static/images/o1.png"," a b c"," static/images/o5.png"," static/images/o5.png"," b b"," d"," static/images/o3.png",6986
"381",21,5,1474915037213,4," static/images/o4.png"," static/images/o5.png"," static/images/o1.png"," a b c"," static/images/o4.png"," static/images/o5.png"," a b"," c"," static/images/o1.png",5143
"382",21,6,1474915041017,4," static/images/o4.png"," static/images/o5.png"," static/images/o1.png"," a b c"," static/images/o5.png"," static/images/o4.png"," b a"," c"," static/images/o1.png",2239
"383",21,7,1474915048226,4," static/images/o4.png"," static/images/o5.png"," static/images/o1.png"," a b c"," static/images/o5.png"," static/images/o1.png"," b c"," d"," static/images/o3.png",5975
"384",21,8,1474915052230,4," static/images/o4.png"," static/images/o5.png"," static/images/o1.png"," a b c"," static/images/o4.png"," static/images/o1.png"," a c"," d"," static/images/o3.png",2992
"385",21,9,1474915056905,4," static/images/o4.png"," static/images/o5.png"," static/images/o1.png"," a b c"," static/images/o1.png"," static/images/o4.png"," c a"," d"," static/images/o3.png",3044
"387",125,2,1474915098189,4," static/images/o1.png"," static/images/o6.png"," static/images/o2.png"," a b c"," static/images/o1.png"," static/images/o1.png"," a a"," a"," static/images/o1.png",10311
"388",125,3,1474915105110,4," static/images/o1.png"," static/images/o6.png"," static/images/o2.png"," a b c"," static/images/o6.png"," static/images/o1.png"," b a"," c"," static/images/o2.png",4174
"389",125,4,1474915122826,4," static/images/o1.png"," static/images/o6.png"," static/images/o2.png"," a b c"," static/images/o2.png"," static/images/o1.png"," c a"," d"," static/images/o5.png",16381
"390",125,5,1474915127571,4," static/images/o1.png"," static/images/o6.png"," static/images/o2.png"," a b c"," static/images/o1.png"," static/images/o6.png"," a b"," c"," static/images/o2.png",4053
"391",125,6,1474915133847,4," static/images/o1.png"," static/images/o6.png"," static/images/o2.png"," a b c"," static/images/o1.png"," static/images/o2.png"," a c"," d"," static/images/o5.png",5028
"392",125,7,1474915138051,4," static/images/o1.png"," static/images/o6.png"," static/images/o2.png"," a b c"," static/images/o6.png"," static/images/o2.png"," b c"," d"," static/images/o5.png",3393
"393",125,8,1474915141654,4," static/images/o1.png"," static/images/o6.png"," static/images/o2.png"," a b c"," static/images/o6.png"," static/images/o6.png"," b b"," b"," static/images/o6.png",2770
"394",125,9,1474915146978,4," static/images/o1.png"," static/images/o6.png"," static/images/o2.png"," a b c"," static/images/o2.png"," static/images/o6.png"," c b"," d"," static/images/o5.png",4846
"396",117,2,1474915536537,4," static/images/o5.png"," static/images/o2.png"," static/images/o1.png"," a b c"," static/images/o2.png"," static/images/o5.png"," b a"," c"," static/images/o1.png",10584
"397",117,3,1474915558174,4," static/images/o5.png"," static/images/o2.png"," static/images/o1.png"," a b c"," static/images/o5.png"," static/images/o1.png"," a c"," d"," static/images/o3.png",19623
"398",117,4,1474915582125,4," static/images/o5.png"," static/images/o2.png"," static/images/o1.png"," a b c"," static/images/o1.png"," static/images/o5.png"," c a"," d"," static/images/o3.png",22775
"399",117,5,1474915593149,4," static/images/o5.png"," static/images/o2.png"," static/images/o1.png"," a b c"," static/images/o1.png"," static/images/o2.png"," c b"," d"," static/images/o3.png",9615
"400",117,6,1474915598135,4," static/images/o5.png"," static/images/o2.png"," static/images/o1.png"," a b c"," static/images/o5.png"," static/images/o5.png"," a a"," a"," static/images/o5.png",3937
"401",117,7,1474915601389,4," static/images/o5.png"," static/images/o2.png"," static/images/o1.png"," a b c"," static/images/o2.png"," static/images/o2.png"," b b"," b"," static/images/o2.png",2103
"402",117,8,1474915605084,4," static/images/o5.png"," static/images/o2.png"," static/images/o1.png"," a b c"," static/images/o5.png"," static/images/o2.png"," a b"," c"," static/images/o1.png",2887
"403",117,9,1474915611119,4," static/images/o5.png"," static/images/o2.png"," static/images/o1.png"," a b c"," static/images/o2.png"," static/images/o1.png"," b c"," d"," static/images/o3.png",4384
"405",83,2,1474915650723,4," static/images/o1.png"," static/images/o4.png"," static/images/o3.png"," a b c"," static/images/o1.png"," static/images/o3.png"," a c"," d"," static/images/o5.png",15899
"406",83,3,1474915659216,4," static/images/o1.png"," static/images/o4.png"," static/images/o3.png"," a b c"," static/images/o4.png"," static/images/o1.png"," b a"," c"," static/images/o3.png",7616
"407",83,4,1474915667619,4," static/images/o1.png"," static/images/o4.png"," static/images/o3.png"," a b c"," static/images/o1.png"," static/images/o1.png"," a a"," a"," static/images/o1.png",7758
"408",83,5,1474915671068,4," static/images/o1.png"," static/images/o4.png"," static/images/o3.png"," a b c"," static/images/o3.png"," static/images/o4.png"," c b"," d"," static/images/o5.png",2816
"409",83,6,1474915676683,4," static/images/o1.png"," static/images/o4.png"," static/images/o3.png"," a b c"," static/images/o3.png"," static/images/o1.png"," c a"," b"," static/images/o4.png",5101
"410",83,7,1474915681619,4," static/images/o1.png"," static/images/o4.png"," static/images/o3.png"," a b c"," static/images/o4.png"," static/images/o3.png"," b c"," a"," static/images/o1.png",4288
"411",83,8,1474915689675,4," static/images/o1.png"," static/images/o4.png"," static/images/o3.png"," a b c"," static/images/o4.png"," static/images/o4.png"," b b"," b"," static/images/o4.png",3163
"412",83,9,1474915694503,4," static/images/o1.png"," static/images/o4.png"," static/images/o3.png"," a b c"," static/images/o1.png"," static/images/o4.png"," a b"," c"," static/images/o3.png",4280
"414",12,2,1474917804883,4," static/images/o6.png"," static/images/o1.png"," static/images/o5.png"," a b c"," static/images/o1.png"," static/images/o1.png"," b b"," a"," static/images/o6.png",15751
"415",12,3,1474917818578,4," static/images/o6.png"," static/images/o1.png"," static/images/o5.png"," a b c"," static/images/o6.png"," static/images/o6.png"," a a"," d"," static/images/o4.png",11102
"416",12,4,1474917827473,4," static/images/o6.png"," static/images/o1.png"," static/images/o5.png"," a b c"," static/images/o5.png"," static/images/o6.png"," c a"," b"," static/images/o1.png",8079
"417",12,5,1474917832665,4," static/images/o6.png"," static/images/o1.png"," static/images/o5.png"," a b c"," static/images/o1.png"," static/images/o6.png"," b a"," c"," static/images/o5.png",4504
"418",12,6,1474917840427,4," static/images/o6.png"," static/images/o1.png"," static/images/o5.png"," a b c"," static/images/o6.png"," static/images/o1.png"," a b"," c"," static/images/o5.png",7026
"419",12,7,1474917845729,4," static/images/o6.png"," static/images/o1.png"," static/images/o5.png"," a b c"," static/images/o1.png"," static/images/o5.png"," b c"," d"," static/images/o4.png",4582
"420",12,8,1474917849577,4," static/images/o6.png"," static/images/o1.png"," static/images/o5.png"," a b c"," static/images/o6.png"," static/images/o5.png"," a c"," d"," static/images/o4.png",2974
"421",12,9,1474917853536,4," static/images/o6.png"," static/images/o1.png"," static/images/o5.png"," a b c"," static/images/o5.png"," static/images/o1.png"," c b"," d"," static/images/o4.png",3319
"423",58,2,1474916039400,4," static/images/o4.png"," static/images/o5.png"," static/images/o6.png"," a b c"," static/images/o4.png"," static/images/o5.png"," a b"," c"," static/images/o6.png",6722
"424",58,3,1474916051554,4," static/images/o4.png"," static/images/o5.png"," static/images/o6.png"," a b c"," static/images/o5.png"," static/images/o4.png"," b a"," c"," static/images/o6.png",10364
"425",58,4,1474916062590,4," static/images/o4.png"," static/images/o5.png"," static/images/o6.png"," a b c"," static/images/o6.png"," static/images/o4.png"," c a"," b"," static/images/o5.png",9819
"426",58,5,1474916071115,4," static/images/o4.png"," static/images/o5.png"," static/images/o6.png"," a b c"," static/images/o6.png"," static/images/o5.png"," c b"," a"," static/images/o4.png",3222
"427",58,6,1474916078042,4," static/images/o4.png"," static/images/o5.png"," static/images/o6.png"," a b c"," static/images/o4.png"," static/images/o6.png"," a c"," b"," static/images/o5.png",6201
"428",58,7,1474916082859,4," static/images/o4.png"," static/images/o5.png"," static/images/o6.png"," a b c"," static/images/o5.png"," static/images/o6.png"," b c"," a"," static/images/o4.png",3544
"429",58,8,1474916089955,4," static/images/o4.png"," static/images/o5.png"," static/images/o6.png"," a b c"," static/images/o4.png"," static/images/o4.png"," a a"," d"," static/images/o1.png",6463
"430",58,9,1474916097014,4," static/images/o4.png"," static/images/o5.png"," static/images/o6.png"," a b c"," static/images/o5.png"," static/images/o5.png"," b b"," d"," static/images/o1.png",5374
"432",60,2,1474917026700,4," static/images/o2.png"," static/images/o1.png"," static/images/o4.png"," a b c"," static/images/o1.png"," static/images/o1.png"," b b"," b"," static/images/o1.png",3936
"433",60,3,1474917035140,4," static/images/o2.png"," static/images/o1.png"," static/images/o4.png"," a b c"," static/images/o1.png"," static/images/o4.png"," b c"," a"," static/images/o2.png",6433
"434",60,4,1474917040772,4," static/images/o2.png"," static/images/o1.png"," static/images/o4.png"," a b c"," static/images/o2.png"," static/images/o1.png"," a b"," c"," static/images/o4.png",3793
"435",60,5,1474917045156,4," static/images/o2.png"," static/images/o1.png"," static/images/o4.png"," a b c"," static/images/o4.png"," static/images/o2.png"," c a"," b"," static/images/o1.png",2976
"436",60,6,1474917054140,4," static/images/o2.png"," static/images/o1.png"," static/images/o4.png"," a b c"," static/images/o1.png"," static/images/o2.png"," b a"," c"," static/images/o4.png",8049
"437",60,7,1474917062005,4," static/images/o2.png"," static/images/o1.png"," static/images/o4.png"," a b c"," static/images/o4.png"," static/images/o1.png"," c b"," a"," static/images/o2.png",6489
"438",60,8,1474917064652,4," static/images/o2.png"," static/images/o1.png"," static/images/o4.png"," a b c"," static/images/o2.png"," static/images/o2.png"," a a"," a"," static/images/o2.png",1889
"439",60,9,1474917068933,4," static/images/o2.png"," static/images/o1.png"," static/images/o4.png"," a b c"," static/images/o2.png"," static/images/o4.png"," a c"," b"," static/images/o1.png",3690
"441",171,2,1474917549099,4," static/images/o4.png"," static/images/o1.png"," static/images/o6.png"," a b c"," static/images/o6.png"," static/images/o1.png"," c b"," a"," static/images/o4.png",7713
"442",171,3,1474917552914,4," static/images/o4.png"," static/images/o1.png"," static/images/o6.png"," a b c"," static/images/o4.png"," static/images/o6.png"," a c"," b"," static/images/o1.png",2625
"443",171,4,1474917555739,4," static/images/o4.png"," static/images/o1.png"," static/images/o6.png"," a b c"," static/images/o1.png"," static/images/o1.png"," b b"," d"," static/images/o3.png",2378
"444",171,5,1474917558735,4," static/images/o4.png"," static/images/o1.png"," static/images/o6.png"," a b c"," static/images/o4.png"," static/images/o1.png"," a b"," c"," static/images/o6.png",2516
"445",171,6,1474917561780,4," static/images/o4.png"," static/images/o1.png"," static/images/o6.png"," a b c"," static/images/o4.png"," static/images/o4.png"," a a"," b"," static/images/o1.png",2680
"446",171,7,1474917564771,4," static/images/o4.png"," static/images/o1.png"," static/images/o6.png"," a b c"," static/images/o1.png"," static/images/o4.png"," b a"," c"," static/images/o6.png",2571
"447",171,8,1474917567445,4," static/images/o4.png"," static/images/o1.png"," static/images/o6.png"," a b c"," static/images/o6.png"," static/images/o4.png"," c a"," d"," static/images/o3.png",2312
"448",171,9,1474917569982,4," static/images/o4.png"," static/images/o1.png"," static/images/o6.png"," a b c"," static/images/o1.png"," static/images/o6.png"," b c"," a"," static/images/o4.png",2115
"450",216,2,1474918441964,4," static/images/o2.png"," static/images/o5.png"," static/images/o1.png"," a b c"," static/images/o2.png"," static/images/o1.png"," a c"," b"," static/images/o5.png",4931
"451",216,3,1474918447941,4," static/images/o2.png"," static/images/o5.png"," static/images/o1.png"," a b c"," static/images/o5.png"," static/images/o5.png"," b b"," a"," static/images/o2.png",3560
"452",216,4,1474918453597,4," static/images/o2.png"," static/images/o5.png"," static/images/o1.png"," a b c"," static/images/o5.png"," static/images/o2.png"," b a"," c"," static/images/o1.png",3465
"453",216,5,1474918462404,4," static/images/o2.png"," static/images/o5.png"," static/images/o1.png"," a b c"," static/images/o1.png"," static/images/o5.png"," c b"," c"," static/images/o1.png",7970
"454",216,6,1474918470888,4," static/images/o2.png"," static/images/o5.png"," static/images/o1.png"," a b c"," static/images/o2.png"," static/images/o5.png"," a b"," c"," static/images/o1.png",7556
"455",216,7,1474918477409,4," static/images/o2.png"," static/images/o5.png"," static/images/o1.png"," a b c"," static/images/o1.png"," static/images/o2.png"," c a"," b"," static/images/o5.png",4529
"456",216,8,1474918485085,4," static/images/o2.png"," static/images/o5.png"," static/images/o1.png"," a b c"," static/images/o2.png"," static/images/o2.png"," a a"," a"," static/images/o2.png",6509
"457",216,9,1474918491046,4," static/images/o2.png"," static/images/o5.png"," static/images/o1.png"," a b c"," static/images/o5.png"," static/images/o1.png"," b c"," a"," static/images/o2.png",5147
"459",11,2,1474919034885,4," static/images/o5.png"," static/images/o4.png"," static/images/o2.png"," a b c"," static/images/o2.png"," static/images/o5.png"," c a"," a"," static/images/o5.png",6604
"460",11,3,1474919046451,4," static/images/o5.png"," static/images/o4.png"," static/images/o2.png"," a b c"," static/images/o4.png"," static/images/o4.png"," b b"," b"," static/images/o4.png",8806
"461",11,4,1474919051494,4," static/images/o5.png"," static/images/o4.png"," static/images/o2.png"," a b c"," static/images/o4.png"," static/images/o2.png"," b c"," a"," static/images/o5.png",4015
"462",11,5,1474919056645,4," static/images/o5.png"," static/images/o4.png"," static/images/o2.png"," a b c"," static/images/o4.png"," static/images/o5.png"," b a"," c"," static/images/o2.png",3697
"463",11,6,1474919063961,4," static/images/o5.png"," static/images/o4.png"," static/images/o2.png"," a b c"," static/images/o5.png"," static/images/o2.png"," a c"," d"," static/images/o3.png",6057
"464",11,7,1474919067688,4," static/images/o5.png"," static/images/o4.png"," static/images/o2.png"," a b c"," static/images/o5.png"," static/images/o5.png"," a a"," a"," static/images/o5.png",2920
"465",11,8,1474919072381,4," static/images/o5.png"," static/images/o4.png"," static/images/o2.png"," a b c"," static/images/o5.png"," static/images/o4.png"," a b"," c"," static/images/o2.png",4016
"466",11,9,1474919076515,4," static/images/o5.png"," static/images/o4.png"," static/images/o2.png"," a b c"," static/images/o2.png"," static/images/o4.png"," c b"," a"," static/images/o5.png",3348
"468",37,2,1475593153345,0," static/images/o3.png"," static/images/o3.png"," static/images/o3.png"," a a a"," static/images/o6.png"," static/images/o3.png"," b a"," b"," static/images/o6.png",6312
"469",37,3,1475593159169,0," static/images/o3.png"," static/images/o3.png"," static/images/o3.png"," a a a"," static/images/o3.png"," static/images/o3.png"," a a"," a"," static/images/o3.png",3125
"470",37,4,1475593166537,0," static/images/o3.png"," static/images/o3.png"," static/images/o3.png"," a a a"," static/images/o3.png"," static/images/o6.png"," a b"," b"," static/images/o6.png",5840
"471",37,5,1475593171303,0," static/images/o3.png"," static/images/o3.png"," static/images/o3.png"," a a a"," static/images/o6.png"," static/images/o6.png"," b b"," b"," static/images/o6.png",3337
"473",102,2,1475593099364,0," static/images/o6.png"," static/images/o6.png"," static/images/o6.png"," a a a"," static/images/o1.png"," static/images/o1.png"," b b"," b"," static/images/o1.png",4320
"474",102,3,1475593109900,0," static/images/o6.png"," static/images/o6.png"," static/images/o6.png"," a a a"," static/images/o6.png"," static/images/o1.png"," a b"," a"," static/images/o6.png",9520
"475",102,4,1475593114500,0," static/images/o6.png"," static/images/o6.png"," static/images/o6.png"," a a a"," static/images/o1.png"," static/images/o6.png"," b a"," b"," static/images/o1.png",2585
"476",102,5,1475593117181,0," static/images/o6.png"," static/images/o6.png"," static/images/o6.png"," a a a"," static/images/o6.png"," static/images/o6.png"," a a"," a"," static/images/o6.png",2138
"478",50,2,1475593128667,0," static/images/o4.png"," static/images/o4.png"," static/images/o4.png"," a a a"," static/images/o4.png"," static/images/o6.png"," a b"," b"," static/images/o6.png",3815
"479",50,3,1475593136585,0," static/images/o4.png"," static/images/o4.png"," static/images/o4.png"," a a a"," static/images/o4.png"," static/images/o4.png"," a a"," a"," static/images/o4.png",5046
"480",50,4,1475593140937,0," static/images/o4.png"," static/images/o4.png"," static/images/o4.png"," a a a"," static/images/o6.png"," static/images/o6.png"," b b"," b"," static/images/o6.png",2802
"481",50,5,1475593146085,0," static/images/o4.png"," static/images/o4.png"," static/images/o4.png"," a a a"," static/images/o6.png"," static/images/o4.png"," b a"," b"," static/images/o6.png",3857
"483",13,2,1475593191859,0," static/images/o2.png"," static/images/o2.png"," static/images/o2.png"," a a a"," static/images/o2.png"," static/images/o2.png"," a a"," a"," static/images/o2.png",3699
"484",13,3,1475593198992,0," static/images/o2.png"," static/images/o2.png"," static/images/o2.png"," a a a"," static/images/o1.png"," static/images/o2.png"," b a"," a"," static/images/o2.png",4711
"485",13,4,1475593203366,0," static/images/o2.png"," static/images/o2.png"," static/images/o2.png"," a a a"," static/images/o1.png"," static/images/o1.png"," b b"," b"," static/images/o1.png",2475
"486",13,5,1475593211101,0," static/images/o2.png"," static/images/o2.png"," static/images/o2.png"," a a a"," static/images/o2.png"," static/images/o1.png"," a b"," a"," static/images/o2.png",3766
"488",128,2,1475593167696,0," static/images/o2.png"," static/images/o2.png"," static/images/o2.png"," a a a"," static/images/o2.png"," static/images/o2.png"," a a"," a"," static/images/o2.png",6599
"489",128,3,1475593170837,0," static/images/o2.png"," static/images/o2.png"," static/images/o2.png"," a a a"," static/images/o3.png"," static/images/o3.png"," b b"," b"," static/images/o3.png",2210
"490",128,4,1475593178551,0," static/images/o2.png"," static/images/o2.png"," static/images/o2.png"," a a a"," static/images/o2.png"," static/images/o3.png"," a b"," b"," static/images/o3.png",7100
"491",128,5,1475593184288,0," static/images/o2.png"," static/images/o2.png"," static/images/o2.png"," a a a"," static/images/o3.png"," static/images/o2.png"," b a"," b"," static/images/o3.png",5425
"493",130,2,1475593206673,0," static/images/o2.png"," static/images/o2.png"," static/images/o2.png"," a a a"," static/images/o4.png"," static/images/o4.png"," b b"," b"," static/images/o4.png",11891
"494",130,3,1475593210744,0," static/images/o2.png"," static/images/o2.png"," static/images/o2.png"," a a a"," static/images/o4.png"," static/images/o2.png"," b a"," a"," static/images/o2.png",2084
"495",130,4,1475593215977,0," static/images/o2.png"," static/images/o2.png"," static/images/o2.png"," a a a"," static/images/o2.png"," static/images/o2.png"," a a"," a"," static/images/o2.png",4297
"496",130,5,1475593218276,0," static/images/o2.png"," static/images/o2.png"," static/images/o2.png"," a a a"," static/images/o2.png"," static/images/o4.png"," a b"," b"," static/images/o4.png",1628
"498",78,2,1475593338826,0," static/images/o3.png"," static/images/o3.png"," static/images/o3.png"," a a a"," static/images/o2.png"," static/images/o3.png"," b a"," b"," static/images/o2.png",6579
"499",78,3,1475593345107,0," static/images/o3.png"," static/images/o3.png"," static/images/o3.png"," a a a"," static/images/o2.png"," static/images/o2.png"," b b"," b"," static/images/o2.png",4243
"500",78,4,1475593350912,0," static/images/o3.png"," static/images/o3.png"," static/images/o3.png"," a a a"," static/images/o3.png"," static/images/o3.png"," a a"," a"," static/images/o3.png",4101
"501",78,5,1475593357790,0," static/images/o3.png"," static/images/o3.png"," static/images/o3.png"," a a a"," static/images/o3.png"," static/images/o2.png"," a b"," b"," static/images/o2.png",5635
"503",169,2,1475593257900,0," static/images/o5.png"," static/images/o5.png"," static/images/o5.png"," a a a"," static/images/o5.png"," static/images/o5.png"," a a"," a"," static/images/o5.png",5383
"504",169,3,1475593262229,0," static/images/o5.png"," static/images/o5.png"," static/images/o5.png"," a a a"," static/images/o4.png"," static/images/o4.png"," b b"," b"," static/images/o4.png",2920
"505",169,4,1475593270826,0," static/images/o5.png"," static/images/o5.png"," static/images/o5.png"," a a a"," static/images/o5.png"," static/images/o4.png"," a b"," a"," static/images/o5.png",7319
"506",169,5,1475593275507,0," static/images/o5.png"," static/images/o5.png"," static/images/o5.png"," a a a"," static/images/o4.png"," static/images/o5.png"," b a"," a"," static/images/o5.png",3739
"508",27,2,1475593639103,0," static/images/o2.png"," static/images/o2.png"," static/images/o2.png"," a a a"," static/images/o2.png"," static/images/o2.png"," a a"," a"," static/images/o2.png",7189
"509",27,3,1475593648764,0," static/images/o2.png"," static/images/o2.png"," static/images/o2.png"," a a a"," static/images/o2.png"," static/images/o1.png"," a b"," b"," static/images/o1.png",8011
"510",27,4,1475593656280,0," static/images/o2.png"," static/images/o2.png"," static/images/o2.png"," a a a"," static/images/o1.png"," static/images/o1.png"," b b"," b"," static/images/o1.png",5896
"511",27,5,1475593662196,0," static/images/o2.png"," static/images/o2.png"," static/images/o2.png"," a a a"," static/images/o1.png"," static/images/o2.png"," b a"," b"," static/images/o1.png",4614
"513",26,2,1475593624241,0," static/images/o6.png"," static/images/o6.png"," static/images/o6.png"," a a a"," static/images/o1.png"," static/images/o1.png"," b b"," b"," static/images/o1.png",5121
"514",26,3,1475593640452,0," static/images/o6.png"," static/images/o6.png"," static/images/o6.png"," a a a"," static/images/o1.png"," static/images/o6.png"," b a"," a"," static/images/o6.png",15255
"515",26,4,1475593649903,0," static/images/o6.png"," static/images/o6.png"," static/images/o6.png"," a a a"," static/images/o6.png"," static/images/o6.png"," a a"," a"," static/images/o6.png",3110
"516",26,5,1475593656283,0," static/images/o6.png"," static/images/o6.png"," static/images/o6.png"," a a a"," static/images/o6.png"," static/images/o1.png"," a b"," b"," static/images/o1.png",5773
"518",86,2,1475593268004,0," static/images/o3.png"," static/images/o3.png"," static/images/o3.png"," a a a"," static/images/o1.png"," static/images/o3.png"," b a"," b"," static/images/o1.png",7585
"519",86,3,1475593273003,0," static/images/o3.png"," static/images/o3.png"," static/images/o3.png"," a a a"," static/images/o1.png"," static/images/o1.png"," b b"," b"," static/images/o1.png",3063
"520",86,4,1475593277409,0," static/images/o3.png"," static/images/o3.png"," static/images/o3.png"," a a a"," static/images/o3.png"," static/images/o1.png"," a b"," b"," static/images/o1.png",2821
"521",86,5,1475593280775,0," static/images/o3.png"," static/images/o3.png"," static/images/o3.png"," a a a"," static/images/o3.png"," static/images/o3.png"," a a"," a"," static/images/o3.png",1896
"523",225,2,1475593298402,0," static/images/o5.png"," static/images/o5.png"," static/images/o5.png"," a a a"," static/images/o4.png"," static/images/o5.png"," b a"," b"," static/images/o4.png",4204
"524",225,3,1475593312371,0," static/images/o5.png"," static/images/o5.png"," static/images/o5.png"," a a a"," static/images/o4.png"," static/images/o4.png"," b b"," b"," static/images/o4.png",8028
"525",225,4,1475593319319,0," static/images/o5.png"," static/images/o5.png"," static/images/o5.png"," a a a"," static/images/o5.png"," static/images/o5.png"," a a"," a"," static/images/o5.png",3417
"526",225,5,1475593323997,0," static/images/o5.png"," static/images/o5.png"," static/images/o5.png"," a a a"," static/images/o5.png"," static/images/o4.png"," a b"," a"," static/images/o5.png",2480
"528",176,2,1475593333098,0," static/images/o5.png"," static/images/o5.png"," static/images/o5.png"," a a a"," static/images/o5.png"," static/images/o5.png"," a a"," a"," static/images/o5.png",5400
"529",176,3,1475593344057,0," static/images/o5.png"," static/images/o5.png"," static/images/o5.png"," a a a"," static/images/o3.png"," static/images/o3.png"," b b"," b"," static/images/o3.png",8747
"530",176,4,1475593360275,0," static/images/o5.png"," static/images/o5.png"," static/images/o5.png"," a a a"," static/images/o5.png"," static/images/o3.png"," a b"," a"," static/images/o5.png",13558
"531",176,5,1475593367887,0," static/images/o5.png"," static/images/o5.png"," static/images/o5.png"," a a a"," static/images/o3.png"," static/images/o5.png"," b a"," b"," static/images/o3.png",5697
"533",63,2,1475593369045,0," static/images/o4.png"," static/images/o4.png"," static/images/o4.png"," a a a"," static/images/o4.png"," static/images/o3.png"," a b"," b"," static/images/o3.png",6493
"534",63,3,1475593374154,0," static/images/o4.png"," static/images/o4.png"," static/images/o4.png"," a a a"," static/images/o4.png"," static/images/o4.png"," a a"," a"," static/images/o4.png",2423
"535",63,4,1475593377118,0," static/images/o4.png"," static/images/o4.png"," static/images/o4.png"," a a a"," static/images/o3.png"," static/images/o3.png"," b b"," b"," static/images/o3.png",2345
"536",63,5,1475593379785,0," static/images/o4.png"," static/images/o4.png"," static/images/o4.png"," a a a"," static/images/o3.png"," static/images/o4.png"," b a"," b"," static/images/o3.png",2146
"538",77,2,1475593311227,0," static/images/o4.png"," static/images/o4.png"," static/images/o4.png"," a a a"," static/images/o4.png"," static/images/o4.png"," a a"," a"," static/images/o4.png",2700
"539",77,3,1475593316923,0," static/images/o4.png"," static/images/o4.png"," static/images/o4.png"," a a a"," static/images/o2.png"," static/images/o2.png"," b b"," b"," static/images/o2.png",4715
"540",77,4,1475593323493,0," static/images/o4.png"," static/images/o4.png"," static/images/o4.png"," a a a"," static/images/o4.png"," static/images/o2.png"," a b"," b"," static/images/o2.png",5900
"541",77,5,1475593328155,0," static/images/o4.png"," static/images/o4.png"," static/images/o4.png"," a a a"," static/images/o2.png"," static/images/o4.png"," b a"," b"," static/images/o2.png",2986
"543",192,2,1475593329048,0," static/images/o5.png"," static/images/o5.png"," static/images/o5.png"," a a a"," static/images/o5.png"," static/images/o5.png"," a a"," a"," static/images/o5.png",3309
"544",192,3,1475593332228,0," static/images/o5.png"," static/images/o5.png"," static/images/o5.png"," a a a"," static/images/o4.png"," static/images/o4.png"," b b"," b"," static/images/o4.png",2648
"545",192,4,1475593335525,0," static/images/o5.png"," static/images/o5.png"," static/images/o5.png"," a a a"," static/images/o5.png"," static/images/o4.png"," a b"," a"," static/images/o5.png",2701
"546",192,5,1475593337755,0," static/images/o5.png"," static/images/o5.png"," static/images/o5.png"," a a a"," static/images/o4.png"," static/images/o5.png"," b a"," a"," static/images/o5.png",1699
"548",197,2,1475593306655,0," static/images/o2.png"," static/images/o2.png"," static/images/o2.png"," a a a"," static/images/o4.png"," static/images/o4.png"," b b"," b"," static/images/o4.png",2877
"549",197,3,1475593311307,0," static/images/o2.png"," static/images/o2.png"," static/images/o2.png"," a a a"," static/images/o2.png"," static/images/o4.png"," a b"," b"," static/images/o4.png",3776
"550",197,4,1475593314594,0," static/images/o2.png"," static/images/o2.png"," static/images/o2.png"," a a a"," static/images/o4.png"," static/images/o2.png"," b a"," a"," static/images/o2.png",1860
"551",197,5,1475593316438,0," static/images/o2.png"," static/images/o2.png"," static/images/o2.png"," a a a"," static/images/o2.png"," static/images/o2.png"," a a"," a"," static/images/o2.png",1266
"553",75,2,1475593462770,0," static/images/o3.png"," static/images/o3.png"," static/images/o3.png"," a a a"," static/images/o2.png"," static/images/o2.png"," b b"," a"," static/images/o3.png",11848
"554",75,3,1475593469698,0," static/images/o3.png"," static/images/o3.png"," static/images/o3.png"," a a a"," static/images/o3.png"," static/images/o2.png"," a b"," b"," static/images/o2.png",5162
"555",75,4,1475593477422,0," static/images/o3.png"," static/images/o3.png"," static/images/o3.png"," a a a"," static/images/o2.png"," static/images/o3.png"," b a"," b"," static/images/o2.png",6025
"556",75,5,1475593481329,0," static/images/o3.png"," static/images/o3.png"," static/images/o3.png"," a a a"," static/images/o3.png"," static/images/o3.png"," a a"," a"," static/images/o3.png",3274
"558",59,2,1475593359627,0," static/images/o2.png"," static/images/o2.png"," static/images/o2.png"," a a a"," static/images/o2.png"," static/images/o2.png"," a a"," a"," static/images/o2.png",5734
"559",59,3,1475593365593,0," static/images/o2.png"," static/images/o2.png"," static/images/o2.png"," a a a"," static/images/o3.png"," static/images/o2.png"," b a"," a"," static/images/o2.png",4617
"560",59,4,1475593369029,0," static/images/o2.png"," static/images/o2.png"," static/images/o2.png"," a a a"," static/images/o3.png"," static/images/o3.png"," b b"," b"," static/images/o3.png",2079
"561",59,5,1475593373270,0," static/images/o2.png"," static/images/o2.png"," static/images/o2.png"," a a a"," static/images/o2.png"," static/images/o3.png"," a b"," a"," static/images/o2.png",2587
"563",175,2,1475593460172,0," static/images/o3.png"," static/images/o3.png"," static/images/o3.png"," a a a"," static/images/o1.png"," static/images/o1.png"," b b"," b"," static/images/o1.png",4952
"564",175,3,1475593476413,0," static/images/o3.png"," static/images/o3.png"," static/images/o3.png"," a a a"," static/images/o1.png"," static/images/o3.png"," b a"," a"," static/images/o3.png",14697
"565",175,4,1475593485738,0," static/images/o3.png"," static/images/o3.png"," static/images/o3.png"," a a a"," static/images/o3.png"," static/images/o3.png"," a a"," a"," static/images/o3.png",5179
"566",175,5,1475593502603,0," static/images/o3.png"," static/images/o3.png"," static/images/o3.png"," a a a"," static/images/o3.png"," static/images/o1.png"," a b"," b"," static/images/o1.png",7724
"568",67,2,1475593653749,0," static/images/o2.png"," static/images/o2.png"," static/images/o2.png"," a a a"," static/images/o2.png"," static/images/o2.png"," a a"," a"," static/images/o2.png",9410
"569",67,3,1475593657904,0," static/images/o2.png"," static/images/o2.png"," static/images/o2.png"," a a a"," static/images/o6.png"," static/images/o2.png"," b a"," a"," static/images/o2.png",3011
"570",67,4,1475593660243,0," static/images/o2.png"," static/images/o2.png"," static/images/o2.png"," a a a"," static/images/o6.png"," static/images/o6.png"," b b"," b"," static/images/o6.png",1867
"571",67,5,1475593662326,0," static/images/o2.png"," static/images/o2.png"," static/images/o2.png"," a a a"," static/images/o2.png"," static/images/o6.png"," a b"," a"," static/images/o2.png",1702
"573",161,2,1475593751822,0," static/images/o4.png"," static/images/o4.png"," static/images/o4.png"," a a a"," static/images/o4.png"," static/images/o2.png"," a b"," a"," static/images/o4.png",7199
"574",161,3,1475593756525,0," static/images/o4.png"," static/images/o4.png"," static/images/o4.png"," a a a"," static/images/o2.png"," static/images/o2.png"," b b"," b"," static/images/o2.png",3727
"575",161,4,1475593763454,0," static/images/o4.png"," static/images/o4.png"," static/images/o4.png"," a a a"," static/images/o2.png"," static/images/o4.png"," b a"," a"," static/images/o4.png",4753
"576",161,5,1475593767469,0," static/images/o4.png"," static/images/o4.png"," static/images/o4.png"," a a a"," static/images/o4.png"," static/images/o4.png"," a a"," a"," static/images/o4.png",1664
"578",217,2,1475593872089,0," static/images/o1.png"," static/images/o1.png"," static/images/o1.png"," a a a"," static/images/o1.png"," static/images/o1.png"," a a"," a"," static/images/o1.png",2195
"579",217,3,1475593877783,0," static/images/o1.png"," static/images/o1.png"," static/images/o1.png"," a a a"," static/images/o1.png"," static/images/o5.png"," a b"," b"," static/images/o5.png",4100
"580",217,4,1475593880363,0," static/images/o1.png"," static/images/o1.png"," static/images/o1.png"," a a a"," static/images/o5.png"," static/images/o1.png"," b a"," b"," static/images/o5.png",1766
"581",217,5,1475593883239,0," static/images/o1.png"," static/images/o1.png"," static/images/o1.png"," a a a"," static/images/o5.png"," static/images/o5.png"," b b"," b"," static/images/o5.png",2070
"583",54,2,1475594125881,0," static/images/o4.png"," static/images/o4.png"," static/images/o4.png"," a a a"," static/images/o4.png"," static/images/o4.png"," a a"," a"," static/images/o4.png",3408
"584",54,3,1475594134823,0," static/images/o4.png"," static/images/o4.png"," static/images/o4.png"," a a a"," static/images/o4.png"," static/images/o2.png"," a b"," a"," static/images/o4.png",7773
"585",54,4,1475594140825,0," static/images/o4.png"," static/images/o4.png"," static/images/o4.png"," a a a"," static/images/o2.png"," static/images/o2.png"," b b"," b"," static/images/o2.png",4857
"586",54,5,1475594146741,0," static/images/o4.png"," static/images/o4.png"," static/images/o4.png"," a a a"," static/images/o2.png"," static/images/o4.png"," b a"," a"," static/images/o4.png",5178
"588",230,2,1475594215624,0," static/images/o6.png"," static/images/o6.png"," static/images/o6.png"," a a a"," static/images/o6.png"," static/images/o5.png"," a b"," a"," static/images/o6.png",10544
"589",230,3,1475594222223,0," static/images/o6.png"," static/images/o6.png"," static/images/o6.png"," a a a"," static/images/o5.png"," static/images/o6.png"," b a"," b"," static/images/o5.png",5032
"590",230,4,1475594226656,0," static/images/o6.png"," static/images/o6.png"," static/images/o6.png"," a a a"," static/images/o6.png"," static/images/o6.png"," a a"," a"," static/images/o6.png",3496
"591",230,5,1475594229991,0," static/images/o6.png"," static/images/o6.png"," static/images/o6.png"," a a a"," static/images/o5.png"," static/images/o5.png"," b b"," b"," static/images/o5.png",1815
"593",36,2,1475594254609,0," static/images/o5.png"," static/images/o5.png"," static/images/o5.png"," a a a"," static/images/o1.png"," static/images/o1.png"," b b"," b"," static/images/o1.png",2295
"594",36,3,1475594276251,0," static/images/o5.png"," static/images/o5.png"," static/images/o5.png"," a a a"," static/images/o1.png"," static/images/o5.png"," b a"," a"," static/images/o5.png",5642
"595",36,4,1475594281848,0," static/images/o5.png"," static/images/o5.png"," static/images/o5.png"," a a a"," static/images/o5.png"," static/images/o5.png"," a a"," a"," static/images/o5.png",3048
"596",36,5,1475594285969,0," static/images/o5.png"," static/images/o5.png"," static/images/o5.png"," a a a"," static/images/o5.png"," static/images/o1.png"," a b"," b"," static/images/o1.png",2439
"598",167,2,1475594780451,0," static/images/o2.png"," static/images/o2.png"," static/images/o2.png"," a a a"," static/images/o4.png"," static/images/o2.png"," b a"," b"," static/images/o4.png",14430
"599",167,3,1475594786085,0," static/images/o2.png"," static/images/o2.png"," static/images/o2.png"," a a a"," static/images/o4.png"," static/images/o4.png"," b b"," b"," static/images/o4.png",2719
"600",167,4,1475594807427,0," static/images/o2.png"," static/images/o2.png"," static/images/o2.png"," a a a"," static/images/o2.png"," static/images/o4.png"," a b"," a"," static/images/o2.png",20422
"601",167,5,1475594810776,0," static/images/o2.png"," static/images/o2.png"," static/images/o2.png"," a a a"," static/images/o2.png"," static/images/o2.png"," a a"," a"," static/images/o2.png",2265
"603",5,2,1475594994900,0," static/images/o6.png"," static/images/o6.png"," static/images/o6.png"," a a a"," static/images/o4.png"," static/images/o6.png"," b a"," a"," static/images/o6.png",9392
"604",5,3,1475595000810,0," static/images/o6.png"," static/images/o6.png"," static/images/o6.png"," a a a"," static/images/o4.png"," static/images/o4.png"," b b"," b"," static/images/o4.png",2450
"605",5,4,1475595002777,0," static/images/o6.png"," static/images/o6.png"," static/images/o6.png"," a a a"," static/images/o6.png"," static/images/o4.png"," a b"," a"," static/images/o6.png",1445
"606",5,5,1475595005243,0," static/images/o6.png"," static/images/o6.png"," static/images/o6.png"," a a a"," static/images/o6.png"," static/images/o6.png"," a a"," a"," static/images/o6.png",1233
"608",196,2,1475595276673,0," static/images/o2.png"," static/images/o2.png"," static/images/o2.png"," a a a"," static/images/o1.png"," static/images/o2.png"," b a"," b"," static/images/o1.png",5629
"609",196,3,1475595283054,0," static/images/o2.png"," static/images/o2.png"," static/images/o2.png"," a a a"," static/images/o1.png"," static/images/o1.png"," b b"," a"," static/images/o2.png",3778
"610",196,4,1475595286159,0," static/images/o2.png"," static/images/o2.png"," static/images/o2.png"," a a a"," static/images/o2.png"," static/images/o1.png"," a b"," b"," static/images/o1.png",2093
"611",196,5,1475595290215,0," static/images/o2.png"," static/images/o2.png"," static/images/o2.png"," a a a"," static/images/o2.png"," static/images/o2.png"," a a"," a"," static/images/o2.png",2664
"613",227,2,1475595774717,0," static/images/o3.png"," static/images/o3.png"," static/images/o3.png"," a a a"," static/images/o6.png"," static/images/o3.png"," b a"," b"," static/images/o6.png",19892
"614",227,3,1475595781121,0," static/images/o3.png"," static/images/o3.png"," static/images/o3.png"," a a a"," static/images/o3.png"," static/images/o3.png"," a a"," a"," static/images/o3.png",4994
"615",227,4,1475595785371,0," static/images/o3.png"," static/images/o3.png"," static/images/o3.png"," a a a"," static/images/o6.png"," static/images/o6.png"," b b"," b"," static/images/o6.png",2993
"616",227,5,1475595790169,0," static/images/o3.png"," static/images/o3.png"," static/images/o3.png"," a a a"," static/images/o3.png"," static/images/o6.png"," a b"," b"," static/images/o6.png",3550
"618",173,2,1475596017882,0," static/images/o6.png"," static/images/o6.png"," static/images/o6.png"," a a a"," static/images/o1.png"," static/images/o6.png"," b a"," a"," static/images/o6.png",7115
"619",173,3,1475596028522,0," static/images/o6.png"," static/images/o6.png"," static/images/o6.png"," a a a"," static/images/o6.png"," static/images/o6.png"," a a"," a"," static/images/o6.png",4385
"620",173,4,1475596031839,0," static/images/o6.png"," static/images/o6.png"," static/images/o6.png"," a a a"," static/images/o6.png"," static/images/o1.png"," a b"," a"," static/images/o6.png",2304
"621",173,5,1475596034306,0," static/images/o6.png"," static/images/o6.png"," static/images/o6.png"," a a a"," static/images/o1.png"," static/images/o1.png"," b b"," b"," static/images/o1.png",1634
"623",183,2,1475597008214,0," static/images/o3.png"," static/images/o3.png"," static/images/o3.png"," a a a"," static/images/o1.png"," static/images/o3.png"," b a"," b"," static/images/o1.png",7783
"624",183,3,1475597015934,0," static/images/o3.png"," static/images/o3.png"," static/images/o3.png"," a a a"," static/images/o3.png"," static/images/o3.png"," a a"," b"," static/images/o1.png",6046
"625",183,4,1475597021518,0," static/images/o3.png"," static/images/o3.png"," static/images/o3.png"," a a a"," static/images/o1.png"," static/images/o1.png"," b b"," a"," static/images/o3.png",3805
"626",183,5,1475597027946,0," static/images/o3.png"," static/images/o3.png"," static/images/o3.png"," a a a"," static/images/o3.png"," static/images/o1.png"," a b"," b"," static/images/o1.png",5468
"628",221,2,1475597055361,0," static/images/o2.png"," static/images/o2.png"," static/images/o2.png"," a a a"," static/images/o3.png"," static/images/o2.png"," b a"," a"," static/images/o2.png",7988
"629",221,3,1475597064460,0," static/images/o2.png"," static/images/o2.png"," static/images/o2.png"," a a a"," static/images/o2.png"," static/images/o3.png"," a b"," a"," static/images/o2.png",8139
"630",221,4,1475597067951,0," static/images/o2.png"," static/images/o2.png"," static/images/o2.png"," a a a"," static/images/o3.png"," static/images/o3.png"," b b"," b"," static/images/o3.png",2252
"631",221,5,1475597072051,0," static/images/o2.png"," static/images/o2.png"," static/images/o2.png"," a a a"," static/images/o2.png"," static/images/o2.png"," a a"," a"," static/images/o2.png",3241
"633",39,2,1475597186206,0," static/images/o6.png"," static/images/o6.png"," static/images/o6.png"," a a a"," static/images/o5.png"," static/images/o6.png"," b a"," b"," static/images/o5.png",9151
"634",39,3,1475597206690,0," static/images/o6.png"," static/images/o6.png"," static/images/o6.png"," a a a"," static/images/o6.png"," static/images/o6.png"," a a"," a"," static/images/o6.png",19515
"635",39,4,1475597212785,0," static/images/o6.png"," static/images/o6.png"," static/images/o6.png"," a a a"," static/images/o6.png"," static/images/o5.png"," a b"," b"," static/images/o5.png",4440
"636",39,5,1475597216985,0," static/images/o6.png"," static/images/o6.png"," static/images/o6.png"," a a a"," static/images/o5.png"," static/images/o5.png"," b b"," b"," static/images/o5.png",3283
"638",99,2,1475597093131,0," static/images/o1.png"," static/images/o1.png"," static/images/o1.png"," a a a"," static/images/o4.png"," static/images/o1.png"," b a"," a"," static/images/o1.png",6693
"639",99,3,1475597099648,0," static/images/o1.png"," static/images/o1.png"," static/images/o1.png"," a a a"," static/images/o4.png"," static/images/o4.png"," b b"," b"," static/images/o4.png",4716
"640",99,4,1475597103300,0," static/images/o1.png"," static/images/o1.png"," static/images/o1.png"," a a a"," static/images/o1.png"," static/images/o1.png"," a a"," a"," static/images/o1.png",2630
"641",99,5,1475597107333,0," static/images/o1.png"," static/images/o1.png"," static/images/o1.png"," a a a"," static/images/o1.png"," static/images/o4.png"," a b"," a"," static/images/o1.png",2726
"643",87,2,1475597116080,0," static/images/o4.png"," static/images/o4.png"," static/images/o4.png"," a a a"," static/images/o4.png"," static/images/o6.png"," a b"," b"," static/images/o6.png",6177
"644",87,3,1475597122629,0," static/images/o4.png"," static/images/o4.png"," static/images/o4.png"," a a a"," static/images/o6.png"," static/images/o4.png"," b a"," b"," static/images/o6.png",4409
"645",87,4,1475597125551,0," static/images/o4.png"," static/images/o4.png"," static/images/o4.png"," a a a"," static/images/o6.png"," static/images/o6.png"," b b"," b"," static/images/o6.png",2154
"646",87,5,1475597128831,0," static/images/o4.png"," static/images/o4.png"," static/images/o4.png"," a a a"," static/images/o4.png"," static/images/o4.png"," a a"," a"," static/images/o4.png",2627
"648",116,2,1475597272471,0," static/images/o5.png"," static/images/o5.png"," static/images/o5.png"," a a a"," static/images/o2.png"," static/images/o2.png"," b b"," b"," static/images/o2.png",2162
"649",116,3,1475597316613,0," static/images/o5.png"," static/images/o5.png"," static/images/o5.png"," a a a"," static/images/o2.png"," static/images/o5.png"," b a"," a"," static/images/o5.png",40486
"650",116,4,1475597319027,0," static/images/o5.png"," static/images/o5.png"," static/images/o5.png"," a a a"," static/images/o5.png"," static/images/o5.png"," a a"," a"," static/images/o5.png",1657
"651",116,5,1475597323506,0," static/images/o5.png"," static/images/o5.png"," static/images/o5.png"," a a a"," static/images/o5.png"," static/images/o2.png"," a b"," a"," static/images/o5.png",3745
"653",232,2,1475597932974,0," static/images/o3.png"," static/images/o3.png"," static/images/o3.png"," a a a"," static/images/o5.png"," static/images/o3.png"," b a"," b"," static/images/o5.png",5583
"654",232,3,1475597937348,0," static/images/o3.png"," static/images/o3.png"," static/images/o3.png"," a a a"," static/images/o3.png"," static/images/o3.png"," a a"," a"," static/images/o3.png",3356
"655",232,4,1475597940103,0," static/images/o3.png"," static/images/o3.png"," static/images/o3.png"," a a a"," static/images/o5.png"," static/images/o5.png"," b b"," b"," static/images/o5.png",2237
"656",232,5,1475597943008,0," static/images/o3.png"," static/images/o3.png"," static/images/o3.png"," a a a"," static/images/o3.png"," static/images/o5.png"," a b"," b"," static/images/o5.png",2259
"658",8,2,1475598429119,0," static/images/o4.png"," static/images/o4.png"," static/images/o4.png"," a a a"," static/images/o4.png"," static/images/o3.png"," a b"," b"," static/images/o3.png",11785
"659",8,3,1475598434893,0," static/images/o4.png"," static/images/o4.png"," static/images/o4.png"," a a a"," static/images/o3.png"," static/images/o3.png"," b b"," b"," static/images/o3.png",4123
"660",8,4,1475598443293,0," static/images/o4.png"," static/images/o4.png"," static/images/o4.png"," a a a"," static/images/o4.png"," static/images/o4.png"," a a"," a"," static/images/o4.png",7049
"661",8,5,1475598450331,0," static/images/o4.png"," static/images/o4.png"," static/images/o4.png"," a a a"," static/images/o3.png"," static/images/o4.png"," b a"," b"," static/images/o3.png",5492
"662",222,2,1475598770328,0," static/images/o2.png"," static/images/o2.png"," static/images/o2.png"," a a a"," static/images/o2.png"," static/images/o6.png"," a b"," b"," static/images/o6.png",10768
"663",222,3,1475598778544,0," static/images/o2.png"," static/images/o2.png"," static/images/o2.png"," a a a"," static/images/o6.png"," static/images/o6.png"," b b"," b"," static/images/o6.png",6575
"664",222,4,1475598783667,0," static/images/o2.png"," static/images/o2.png"," static/images/o2.png"," a a a"," static/images/o2.png"," static/images/o2.png"," a a"," a"," static/images/o2.png",3122
"665",222,5,1475598788592,0," static/images/o2.png"," static/images/o2.png"," static/images/o2.png"," a a a"," static/images/o6.png"," static/images/o2.png"," b a"," b"," static/images/o6.png",4047
"667",156,2,1475601817508,0," static/images/o3.png"," static/images/o3.png"," static/images/o3.png"," a a a"," static/images/o3.png"," static/images/o4.png"," a b"," b"," static/images/o4.png",10719
"668",156,3,1475601824405,0," static/images/o3.png"," static/images/o3.png"," static/images/o3.png"," a a a"," static/images/o3.png"," static/images/o3.png"," a a"," a"," static/images/o3.png",5417
"669",156,4,1475601830723,0," static/images/o3.png"," static/images/o3.png"," static/images/o3.png"," a a a"," static/images/o4.png"," static/images/o4.png"," b b"," b"," static/images/o4.png",4230
"670",156,5,1475601838550,0," static/images/o3.png"," static/images/o3.png"," static/images/o3.png"," a a a"," static/images/o4.png"," static/images/o3.png"," b a"," a"," static/images/o3.png",6723
"672",123,2,1475606746441,1," static/images/o6.png"," static/images/o6.png"," static/images/o2.png"," a a b"," static/images/o2.png"," static/images/o6.png"," b a"," c"," static/images/o4.png",6309
"673",123,3,1475606752621,1," static/images/o6.png"," static/images/o6.png"," static/images/o2.png"," a a b"," static/images/o4.png"," static/images/o6.png"," c a"," b"," static/images/o2.png",5027
"674",123,4,1475606758869,1," static/images/o6.png"," static/images/o6.png"," static/images/o2.png"," a a b"," static/images/o6.png"," static/images/o2.png"," a b"," c"," static/images/o4.png",5517
"675",123,5,1475606768589,1," static/images/o6.png"," static/images/o6.png"," static/images/o2.png"," a a b"," static/images/o2.png"," static/images/o4.png"," b c"," a"," static/images/o6.png",8323
"676",123,6,1475606772654,1," static/images/o6.png"," static/images/o6.png"," static/images/o2.png"," a a b"," static/images/o4.png"," static/images/o2.png"," c b"," a"," static/images/o6.png",3495
"677",123,7,1475606775601,1," static/images/o6.png"," static/images/o6.png"," static/images/o2.png"," a a b"," static/images/o6.png"," static/images/o4.png"," a c"," b"," static/images/o2.png",2353
"678",123,8,1475606779032,1," static/images/o6.png"," static/images/o6.png"," static/images/o2.png"," a a b"," static/images/o2.png"," static/images/o2.png"," b b"," c"," static/images/o4.png",2541
"679",123,9,1475606783505,1," static/images/o6.png"," static/images/o6.png"," static/images/o2.png"," a a b"," static/images/o6.png"," static/images/o6.png"," a a"," b"," static/images/o2.png",3465
"681",9,2,1475606844192,1," static/images/o2.png"," static/images/o2.png"," static/images/o6.png"," a a b"," static/images/o6.png"," static/images/o2.png"," b a"," c"," static/images/o3.png",5622
"682",9,3,1475606858751,1," static/images/o2.png"," static/images/o2.png"," static/images/o6.png"," a a b"," static/images/o3.png"," static/images/o2.png"," c a"," b"," static/images/o6.png",11879
"683",9,4,1475606865473,1," static/images/o2.png"," static/images/o2.png"," static/images/o6.png"," a a b"," static/images/o2.png"," static/images/o2.png"," a a"," b"," static/images/o6.png",4259
"684",9,5,1475606879633,1," static/images/o2.png"," static/images/o2.png"," static/images/o6.png"," a a b"," static/images/o2.png"," static/images/o6.png"," a b"," c"," static/images/o3.png",11649
"685",9,6,1475606888128,1," static/images/o2.png"," static/images/o2.png"," static/images/o6.png"," a a b"," static/images/o2.png"," static/images/o3.png"," a c"," b"," static/images/o6.png",5623
"686",9,7,1475606902651,1," static/images/o2.png"," static/images/o2.png"," static/images/o6.png"," a a b"," static/images/o3.png"," static/images/o6.png"," c b"," b"," static/images/o6.png",9721
"687",9,8,1475606916395,1," static/images/o2.png"," static/images/o2.png"," static/images/o6.png"," a a b"," static/images/o6.png"," static/images/o6.png"," b b"," c"," static/images/o3.png",8086
"688",9,9,1475606931155,1," static/images/o2.png"," static/images/o2.png"," static/images/o6.png"," a a b"," static/images/o6.png"," static/images/o3.png"," b c"," a"," static/images/o2.png",12116
"690",38,2,1475606761464,1," static/images/o6.png"," static/images/o6.png"," static/images/o2.png"," a a b"," static/images/o2.png"," static/images/o3.png"," b c"," a"," static/images/o6.png",19986
"691",38,3,1475606781987,1," static/images/o6.png"," static/images/o6.png"," static/images/o2.png"," a a b"," static/images/o3.png"," static/images/o6.png"," c a"," b"," static/images/o2.png",19086
"692",38,4,1475606786483,1," static/images/o6.png"," static/images/o6.png"," static/images/o2.png"," a a b"," static/images/o6.png"," static/images/o6.png"," a a"," b"," static/images/o2.png",3539
"693",38,5,1475606794698,1," static/images/o6.png"," static/images/o6.png"," static/images/o2.png"," a a b"," static/images/o6.png"," static/images/o3.png"," a c"," b"," static/images/o2.png",5941
"694",38,6,1475606798884,1," static/images/o6.png"," static/images/o6.png"," static/images/o2.png"," a a b"," static/images/o3.png"," static/images/o2.png"," c b"," a"," static/images/o6.png",2514
"695",38,7,1475606804106,1," static/images/o6.png"," static/images/o6.png"," static/images/o2.png"," a a b"," static/images/o2.png"," static/images/o6.png"," b a"," c"," static/images/o3.png",3134
"696",38,8,1475606809689,1," static/images/o6.png"," static/images/o6.png"," static/images/o2.png"," a a b"," static/images/o6.png"," static/images/o2.png"," a b"," c"," static/images/o3.png",4110
"697",38,9,1475606819763,1," static/images/o6.png"," static/images/o6.png"," static/images/o2.png"," a a b"," static/images/o2.png"," static/images/o2.png"," b b"," c"," static/images/o3.png",9242
"699",93,2,1475606904980,1," static/images/o2.png"," static/images/o2.png"," static/images/o6.png"," a a b"," static/images/o4.png"," static/images/o6.png"," c b"," c"," static/images/o4.png",39815
"700",93,3,1475606918492,1," static/images/o2.png"," static/images/o2.png"," static/images/o6.png"," a a b"," static/images/o6.png"," static/images/o6.png"," b b"," b"," static/images/o6.png",11384
"701",93,4,1475606925044,1," static/images/o2.png"," static/images/o2.png"," static/images/o6.png"," a a b"," static/images/o2.png"," static/images/o2.png"," a a"," b"," static/images/o6.png",4303
"702",93,5,1475606933724,1," static/images/o2.png"," static/images/o2.png"," static/images/o6.png"," a a b"," static/images/o4.png"," static/images/o2.png"," c a"," c"," static/images/o4.png",6992
"703",93,6,1475606949155,1," static/images/o2.png"," static/images/o2.png"," static/images/o6.png"," a a b"," static/images/o2.png"," static/images/o6.png"," a b"," b"," static/images/o6.png",14135
"704",93,7,1475606954572,1," static/images/o2.png"," static/images/o2.png"," static/images/o6.png"," a a b"," static/images/o2.png"," static/images/o4.png"," a c"," c"," static/images/o4.png",4480
