"","WorkerID","Trial","TimeStamp","Condition","ConditionID","Question","Response","RT"
"13055",86,8,1497471019149," 3"," Constant2","b","c"," 9276"
"13056",86,9,1497471028653," 3"," Constant2","a","c"," 6322"
"13057",86,10,1497471033737," 3"," Constant2","c","d"," 3867"
"13058",86,11,1497471037938," 3"," Constant2","d","e"," 3261"
"13066",295,8,1497471013706," 1"," Successor2","c","d"," 5128"
"13067",295,9,1497471019874," 1"," Successor2","a","b"," 5455"
"13068",295,10,1497471022449," 1"," Successor2","b","c"," 2007"
"13082",165,8,1497471122917," 2"," Constant1","b","d"," 12865"
"13083",165,9,1497471129955," 2"," Constant1","a","c"," 6268"
"13091",612,8,1497471111534," 3"," Constant2","d","d"," 12300"
"13092",612,9,1497471118425," 3"," Constant2","b","c"," 5408"
"13093",612,10,1497471124628," 3"," Constant2","c","e"," 5307"
"13094",612,11,1497471128305," 3"," Constant2","a","b"," 2810"
"13103",172,8,1497471088715," 0"," Successor1","a","b"," 2945"
"13104",172,9,1497471101353," 0"," Successor1","b","c"," 10841"
"13112",573,8,1497471094605," 1"," Successor2","c","d"," 3323"
"13113",573,9,1497471102104," 1"," Successor2","a","b"," 5828"
"13114",573,10,1497471105549," 1"," Successor2","b","c"," 2627"
"13122",460,8,1497471137386," 4"," Identity1","b","b"," 5303"
"13123",460,9,1497471142099," 4"," Identity1","a","a"," 2816"
"13131",390,8,1497471092004," 3"," Constant2","d","d"," 3149"
"13132",390,9,1497471098477," 3"," Constant2","c","c"," 4184"
"13133",390,10,1497471100958," 3"," Constant2","b","c"," 2128"
"13134",390,11,1497471103749," 3"," Constant2","a","c"," 1870"
"13142",276,8,1497471194431," 3"," Constant2","d","c"," 7497"
"13143",276,9,1497471200949," 3"," Constant2","c","a"," 5014"
"13144",276,10,1497471206071," 3"," Constant2","a","c"," 3857"
"13145",276,11,1497471209552," 3"," Constant2","b","c"," 2706"
"13153",617,8,1497471172523," 0"," Successor1","b","c"," 4748"
"13154",617,9,1497471177679," 0"," Successor1","a","b"," 4086"
"13162",124,8,1497471196407," 4"," Identity1","a","a"," 4206"
"13163",124,9,1497471201342," 4"," Identity1","b","c"," 4040"
"13171",133,8,1497471631972," 2"," Constant1","a","c"," 9747"
"13172",133,9,1497471643392," 2"," Constant1","b","a"," 9712"
"13180",448,8,1497471242951," 1"," Successor2","a","d"," 10163"
"13181",448,9,1497471253195," 1"," Successor2","c","d"," 8280"
"13182",448,10,1497471261096," 1"," Successor2","b","c"," 5063"
"13190",251,8,1497471188732," 0"," Successor1","a","c"," 8492"
"13191",251,9,1497471193242," 0"," Successor1","b","c"," 3881"
"13199",167,8,1497471292721," 4"," Identity1","a","b"," 16865"
"13200",167,9,1497471300581," 4"," Identity1","b","c"," 6616"
"13208",624,8,1497471334810," 2"," Constant1","a","c"," 6639"
"13209",624,9,1497471343834," 2"," Constant1","b","d"," 6848"
"13217",283,8,1497471281022," 1"," Successor2","a","b"," 6623"
"13218",283,9,1497471284343," 1"," Successor2","b","c"," 2113"
"13219",283,10,1497471287774," 1"," Successor2","c","d"," 2687"
"13227",616,8,1497471387639," 3"," Constant2","b","c"," 7902"
"13228",616,9,1497471395315," 3"," Constant2","a","c"," 4464"
"13229",616,10,1497471406455," 3"," Constant2","c","e"," 9025"
"13230",616,11,1497471412113," 3"," Constant2","d","c"," 4355"
"13238",337,8,1497471348266," 1"," Successor2","a","b"," 6095"
"13239",337,9,1497471352994," 1"," Successor2","c","d"," 3557"
"13240",337,10,1497471355834," 1"," Successor2","b","c"," 2136"
"13248",148,8,1497471440871," 2"," Constant1","b","d"," 13348"
"13249",148,9,1497471447439," 2"," Constant1","a","b"," 4375"
"13257",628,8,1497471434849," 0"," Successor1","a","b"," 3571"
"13258",628,9,1497471440177," 0"," Successor1","b","a"," 4066"
"13266",194,8,1497471433417," 3"," Constant2","c","e"," 6288"
"13267",194,9,1497471441126," 3"," Constant2","b","c"," 6448"
"13268",194,10,1497471446353," 3"," Constant2","a","c"," 3033"
"13269",194,11,1497471452950," 3"," Constant2","d","e"," 5745"
"13277",140,8,1497471541424," 4"," Identity1","b","b"," 4232"
"13278",140,9,1497471548486," 4"," Identity1","a","a"," 4576"
"13286",568,8,1497471389383," 0"," Successor1","a","b"," 7996"
"13287",568,9,1497471392317," 0"," Successor1","b","c"," 2196"
"13295",255,8,1497471510785," 1"," Successor2","a","b"," 35081"
"13296",255,9,1497471518205," 1"," Successor2","b","c"," 4971"
"13297",255,10,1497471522879," 1"," Successor2","c","d"," 2984"
"13305",111,8,1497471449810," 4"," Identity1","b","c"," 6954"
"13306",111,9,1497471456039," 4"," Identity1","a","a"," 4010"
"13314",20,8,1497471420452," 2"," Constant1","a","b"," 9712"
"13315",20,9,1497471425145," 2"," Constant1","b","d"," 3089"
"13323",232,8,1497471507194," 0"," Successor1","b","c"," 7658"
"13324",232,9,1497471511428," 0"," Successor1","a","b"," 3548"
"13332",207,8,1497471488242," 3"," Constant2","d","c"," 7313"
"13333",207,9,1497471496362," 3"," Constant2","a","c"," 6097"
"13334",207,10,1497471502223," 3"," Constant2","c","c"," 4432"
"13335",207,11,1497471505114," 3"," Constant2","b","c"," 1992"
"13343",648,8,1497471454784," 2"," Constant1","b","d"," 8391"
"13344",648,9,1497471466449," 2"," Constant1","a","d"," 10878"
"13352",150,8,1497471612417," 4"," Identity1","b","b"," 3743"
"13353",150,9,1497471615755," 4"," Identity1","a","a"," 2282"
"13361",335,8,1497471730533," 1"," Successor2","c","d"," 20118"
"13362",335,9,1497471743351," 1"," Successor2","b","c"," 10822"
"13363",335,10,1497471747912," 1"," Successor2","a","b"," 2770"
"13371",83,8,1497472043730," 1"," Successor2","b","c"," 17489"
"13372",83,9,1497472050230," 1"," Successor2","a","b"," 2786"
"13373",83,10,1497472066826," 1"," Successor2","c","d"," 14636"
"13381",528,8,1497471761531," 3"," Constant2","b","c"," 7222"
"13382",528,9,1497471766710," 3"," Constant2","a","c"," 3251"
"13383",528,10,1497471772998," 3"," Constant2","d","e"," 5482"
"13384",528,11,1497471783380," 3"," Constant2","c","e"," 9129"
"13392",641,8,1497471651085," 2"," Constant1","b","b"," 23027"
"13393",641,9,1497471658041," 2"," Constant1","a","a"," 2877"
"13401",293,8,1497472037206," 0"," Successor1","b","c"," 19541"
"13402",293,9,1497472057170," 0"," Successor1","a","c"," 15255"
"13410",80,8,1497471860543," 4"," Identity1","a","c"," 45244"
"13411",80,9,1497471872129," 4"," Identity1","b","c"," 6011"
"13419",38,8,1497471731929," 0"," Successor1","b","a"," 12437"
"13420",38,9,1497471734759," 0"," Successor1","a","b"," 2104"
"13428",30,8,1497471884446," 4"," Identity1","a","a"," 5311"
"13429",30,9,1497471890629," 4"," Identity1","b","b"," 4486"
"13437",509,8,1497471874070," 1"," Successor2","a","b"," 6488"
"13438",509,9,1497471879735," 1"," Successor2","b","b"," 4444"
"13439",509,10,1497471894286," 1"," Successor2","c","d"," 6778"
"13447",597,8,1497471650335," 2"," Constant1","a","c"," 11452"
"13448",597,9,1497471663952," 2"," Constant1","b","a"," 10486"
"13456",308,8,1497471984633," 3"," Constant2","d","e"," 14080"
"13457",308,9,1497471997318," 3"," Constant2","c","b"," 11687"
"13458",308,10,1497472011472," 3"," Constant2","b","c"," 13488"
"13459",308,11,1497472021171," 3"," Constant2","a","c"," 9039"
"13467",311,8,1497472194528," 3"," Constant2","d","e"," 9033"
"13468",311,9,1497472204106," 3"," Constant2","c","d"," 7124"
"13469",311,10,1497472208736," 3"," Constant2","a","c"," 3466"
"13470",311,11,1497472214513," 3"," Constant2","b","a"," 4169"
"13478",274,8,1497472066496," 1"," Successor2","c","d"," 9642"
"13479",274,9,1497472071084," 1"," Successor2","a","b"," 2974"
"13480",274,10,1497472076663," 1"," Successor2","b","c"," 4220"
"13488",342,8,1497472122266," 0"," Successor1","b","c"," 4608"
"13489",342,9,1497472127456," 0"," Successor1","a","b"," 4325"
"13497",452,8,1497472139859," 2"," Constant1","a","b"," 4958"
"13498",452,9,1497472146613," 2"," Constant1","b","d"," 5014"
"13506",227,8,1497472192867," 4"," Identity1","a","a"," 9687"
"13507",227,9,1497472197545," 4"," Identity1","b","b"," 2854"
"13515",600,8,1497472234388," 1"," Successor2","c","b"," 6320"
"13516",600,9,1497472244915," 1"," Successor2","a","d"," 4218"
"13517",600,10,1497472248303," 1"," Successor2","b","c"," 1932"
"13525",175,8,1497472395822," 2"," Constant1","b","c"," 10789"
"13526",175,9,1497472404984," 2"," Constant1","a","c"," 6644"
"13534",126,8,1497472341323," 0"," Successor1","a","c"," 2983"
"13535",126,9,1497472347507," 0"," Successor1","b","c"," 4782"
"13543",554,8,1497472443120," 3"," Constant2","c","e"," 83564"
"13544",554,9,1497472451476," 3"," Constant2","a","b"," 6486"
"13545",554,10,1497472456732," 3"," Constant2","d","c"," 3959"
"13546",554,11,1497472465359," 3"," Constant2","b","d"," 7898"
"13554",391,8,1497472336831," 4"," Identity1","b","c"," 7920"
"13555",391,9,1497472340683," 4"," Identity1","a","a"," 2561"
"13562",433,8,1497472395370," 0"," Successor1","a","b"," 3955"
"13563",433,9,1497472404819," 0"," Successor1","b","c"," 4761"
"13571",647,8,1497472545283," 1"," Successor2","a","a"," 14871"
"13572",647,9,1497472550991," 1"," Successor2","b","c"," 4201"
"13573",647,10,1497472556119," 1"," Successor2","c","a"," 4026"
"13581",417,8,1497472564157," 3"," Constant2","d","e"," 8528"
"13582",417,9,1497472575221," 3"," Constant2","c","d"," 8870"
"13583",417,10,1497472581321," 3"," Constant2","b","c"," 4979"
"13584",417,11,1497472587737," 3"," Constant2","a","c"," 3344"
"13592",363,8,1497472511274," 4"," Identity1","a","b"," 5885"
"13593",363,9,1497472521418," 4"," Identity1","b","c"," 8496"
"13601",317,8,1497472881050," 2"," Constant1","b","d"," 11373"
"13602",317,9,1497472902550," 2"," Constant1","a","c"," 16916"
"13610",516,8,1497472574334," 0"," Successor1","b","c"," 10631"
"13611",516,9,1497472584442," 0"," Successor1","a","c"," 4026"
"13619",526,8,1497472682080," 1"," Successor2","b","c"," 13495"
"13620",526,9,1497472693751," 1"," Successor2","c","d"," 9376"
"13621",526,10,1497472703974," 1"," Successor2","a","b"," 7999"
"13629",645,8,1497472693256," 3"," Constant2","a","c"," 4065"
"13630",645,9,1497472696562," 3"," Constant2","b","c"," 2346"
"13631",645,10,1497472703098," 3"," Constant2","d","e"," 4985"
"13632",645,11,1497472707793," 3"," Constant2","c","d"," 3500"
"13646",131,8,1497472840181," 1"," Successor2","c","d"," 4851"
"13647",131,9,1497472847526," 1"," Successor2","b","d"," 5899"
"13648",131,10,1497472851622," 1"," Successor2","a","b"," 3177"
"13656",136,8,1497472858014," 0"," Successor1","b","a"," 6846"
"13657",136,9,1497472866809," 0"," Successor1","a","b"," 7594"
"13665",221,8,1497473060505," 0"," Successor1","b","c"," 28899"
"13666",221,9,1497473075216," 0"," Successor1","a","b"," 13186"
"13674",186,8,1497473045925," 4"," Identity1","a","c"," 10159"
"13675",186,9,1497473053884," 4"," Identity1","b","a"," 5922"
"13683",6,8,1497473091422," 3"," Constant2","c","b"," 11598"
"13684",6,9,1497473096695," 3"," Constant2","b","c"," 4750"
"13685",6,10,1497473102001," 3"," Constant2","a","c"," 3523"
"13686",6,11,1497473109195," 3"," Constant2","d","c"," 6333"
"13700",510,8,1497473208772," 0"," Successor1","a","b"," 4305"
"13701",510,9,1497473216482," 0"," Successor1","b","c"," 5227"
"13709",551,8,1497473100635," 4"," Identity1","a","a"," 4106"
"13710",551,9,1497473105474," 4"," Identity1","b","b"," 3516"
"13718",468,8,1497473141680," 2"," Constant1","b","b"," 6108"
"13719",468,9,1497473150043," 2"," Constant1","a","a"," 4547"
"13727",534,8,1497473248598," 3"," Constant2","b","c"," 35474"
"13728",534,9,1497473252828," 3"," Constant2","c","c"," 3257"
"13729",534,10,1497473255078," 3"," Constant2","a","a"," 1649"
"13730",534,11,1497473259388," 3"," Constant2","d","d"," 3773"
"13738",627,8,1497473398055," 1"," Successor2","b","d"," 6516"
"13739",627,9,1497473405577," 1"," Successor2","a","b"," 4312"
"13740",627,10,1497473413268," 1"," Successor2","c","d"," 6325"
"13748",435,8,1497473344633," 0"," Successor1","a","b"," 2514"
"13749",435,9,1497473347106," 0"," Successor1","b","a"," 2360"
"13763",477,8,1497473597797," 4"," Identity1","a","c"," 9788"
"13764",477,9,1497473604549," 4"," Identity1","b","b"," 3734"
"13772",264,8,1497473620513," 4"," Identity1","a","c"," 11092"
"13773",264,9,1497473630683," 4"," Identity1","b","c"," 8316"
"13781",501,8,1497473728660," 3"," Constant2","b","c"," 9062"
"13782",501,9,1497473746161," 3"," Constant2","c","d"," 13214"
"13783",501,10,1497473751521," 3"," Constant2","a","c"," 4240"
"13784",501,11,1497473757625," 3"," Constant2","d","e"," 4473"
"13792",637,8,1497473671121," 2"," Constant1","a","c"," 10013"
"13793",637,9,1497473678298," 2"," Constant1","b","d"," 5976"
"13801",622,8,1497473747578," 1"," Successor2","b","d"," 5687"
"13802",622,9,1497473760682," 1"," Successor2","a","b"," 2703"
"13803",622,10,1497473771294," 1"," Successor2","c","d"," 4672"
"13811",439,8,1497473709095," 0"," Successor1","a","b"," 8221"
"13812",439,9,1497473726050," 0"," Successor1","b","c"," 15729"
"13820",271,8,1497473830538," 1"," Successor2","a","d"," 8633"
"13821",271,9,1497473837277," 1"," Successor2","b","c"," 5432"
"13822",271,10,1497473843028," 1"," Successor2","c","d"," 3781"
"13830",313,8,1497473834233," 3"," Constant2","b","c"," 5909"
"13831",313,9,1497473851508," 3"," Constant2","c","b"," 15805"
"13832",313,10,1497473856406," 3"," Constant2","a","c"," 3159"
"13833",313,11,1497473864595," 3"," Constant2","d","c"," 2702"
"13841",382,8,1497473979157," 2"," Constant1","b","d"," 23772"
"13842",382,9,1497473992707," 2"," Constant1","a","c"," 8794"
"13850",630,8,1497473962100," 0"," Successor1","b","c"," 9807"
"13851",630,9,1497473983588," 0"," Successor1","a","b"," 20470"
"13859",428,8,1497473930067," 1"," Successor2","b","a"," 7605"
"13860",428,9,1497473938875," 1"," Successor2","a","b"," 7745"
"13861",428,10,1497473945362," 1"," Successor2","c","d"," 3640"
"13869",500,8,1497473951815," 4"," Identity1","a","a"," 5499"
"13870",500,9,1497473957451," 4"," Identity1","b","b"," 4214"
"13882",146,8,1497474210562," 0"," Successor1","a","b"," 9325"
"13883",146,9,1497474220869," 0"," Successor1","b","c"," 9369"
"13891",389,8,1497474126639," 2"," Constant1","b","d"," 7569"
"13892",389,9,1497474135237," 2"," Constant1","a","b"," 7230"
"13900",578,8,1497474221099," 4"," Identity1","b","c"," 5741"
"13901",578,9,1497474230750," 4"," Identity1","a","a"," 3633"
"13909",142,8,1497474208238," 3"," Constant2","b","c"," 10087"
"13910",142,9,1497474216746," 3"," Constant2","c","d"," 6859"
"13911",142,10,1497474225068," 3"," Constant2","d","e"," 3482"
"13912",142,11,1497474228571," 3"," Constant2","a","c"," 2191"
"13920",63,8,1497474317714," 0"," Successor1","a","c"," 6551"
"13921",63,9,1497474326908," 0"," Successor1","b","c"," 7825"
"13929",327,8,1497474565157," 4"," Identity1","b","c"," 17972"
"13930",327,9,1497474574751," 4"," Identity1","a","a"," 7061"
"13938",605,8,1497474589600," 1"," Successor2","b","d"," 17071"
"13939",605,9,1497474602743," 1"," Successor2","a","b"," 9359"
"13940",605,10,1497474609567," 1"," Successor2","c","d"," 4688"
"13948",21,8,1497474596195," 2"," Constant1","b","d"," 8914"
"13949",21,9,1497474603902," 2"," Constant1","a","c"," 6280"
"13957",493,8,1497474668945," 3"," Constant2","c","d"," 18227"
"13958",493,9,1497474681024," 3"," Constant2","b","c"," 10775"
"13959",493,10,1497474692159," 3"," Constant2","a","c"," 7668"
"13960",493,11,1497474699154," 3"," Constant2","d","e"," 5893"
"13968",579,8,1497474589216," 4"," Identity1","a","b"," 5880"
"13969",579,9,1497474593339," 4"," Identity1","b","a"," 3188"
"13977",277,8,1497474863668," 2"," Constant1","a","c"," 19855"
"13978",277,9,1497474882650," 2"," Constant1","b","a"," 15014"
"13986",614,8,1497474838041," 3"," Constant2","b","c"," 8934"
"13987",614,9,1497474851053," 3"," Constant2","d","e"," 11344"
"13988",614,10,1497474862256," 3"," Constant2","c","b"," 8944"
"13989",614,11,1497474869644," 3"," Constant2","a","c"," 5981"
"13997",296,8,1497474858838," 0"," Successor1","b","c"," 8047"
"13998",296,9,1497474865758," 0"," Successor1","a","b"," 5592"
"14006",246,8,1497474917913," 1"," Successor2","b","c"," 8207"
"14007",246,9,1497474923325," 1"," Successor2","a","b"," 3503"
"14008",246,10,1497474929559," 1"," Successor2","c","d"," 4617"
"14016",247,8,1497475105530," 2"," Constant1","b","d"," 4551"
"14017",247,9,1497475113078," 2"," Constant1","a","c"," 6658"
"14025",559,8,1497475399714," 2"," Constant1","b","d"," 7757"
"14026",559,9,1497475406585," 2"," Constant1","a","c"," 5603"
"14034",610,8,1497475612372," 3"," Constant2","c","e"," 8440"
"14035",610,9,1497475620526," 3"," Constant2","a","c"," 5361"
"14036",610,10,1497475625244," 3"," Constant2","d","e"," 3472"
"14037",610,11,1497475628564," 3"," Constant2","b","c"," 2658"
"14045",463,8,1497476141633," 4"," Identity1","a","a"," 2681"
"14046",463,9,1497476145258," 4"," Identity1","b","b"," 2208"
"14054",574,8,1497476178858," 4"," Identity1","a","a"," 4962"
"14055",574,9,1497476185271," 4"," Identity1","b","c"," 3747"
"14063",408,8,1497476959028," 2"," Constant1","a","c"," 6535"
"14064",408,9,1497476964436," 2"," Constant1","b","d"," 3237"
"14072",192,8,1497477370183," 0"," Successor1","b","a"," 6687"
"14073",192,9,1497477377198," 0"," Successor1","a","b"," 4287"
"14081",84,8,1497477904260," 1"," Successor2","a","d"," 12878"
"14082",84,9,1497477907524," 1"," Successor2","c","d"," 2479"
"14083",84,10,1497477911523," 1"," Successor2","b","c"," 2655"
"14091",14,8,1497478349429," 3"," Constant2","a","c"," 4368"
"14092",14,9,1497478352181," 3"," Constant2","b","c"," 1983"
"14093",14,10,1497478357356," 3"," Constant2","c","c"," 4663"
"14094",14,11,1497478361868," 3"," Constant2","d","e"," 3520"
"14102",347,8,1497478688218," 4"," Identity1","b","b"," 3672"
"14103",347,9,1497478693104," 4"," Identity1","a","a"," 3242"
"14111",81,8,1497479016428," 1"," Successor2","b","c"," 6089"
"14112",81,9,1497479024951," 1"," Successor2","c","d"," 6522"
"14113",81,10,1497479029453," 1"," Successor2","a","b"," 2726"
"14121",603,8,1497479265126," 4"," Identity1","b","c"," 23004"
"14122",603,9,1497479273855," 4"," Identity1","a","c"," 6463"
"14130",220,8,1497479494329," 2"," Constant1","a","c"," 8286"
"14131",220,9,1497479500671," 2"," Constant1","b","b"," 3734"
"14139",300,8,1497479798471," 0"," Successor1","b","a"," 13383"
"14140",300,9,1497479813880," 0"," Successor1","a","c"," 11630"
"14147",144,8,1497479902462," 3"," Constant2","c","e"," 8279"
"14148",144,9,1497479911724," 3"," Constant2","b","c"," 8090"
"14149",144,10,1497479914827," 3"," Constant2","a","c"," 2415"
"14150",144,11,1497479921590," 3"," Constant2","d","e"," 6129"
"14158",351,8,1497480043376," 1"," Successor2","b","c"," 9296"
"14159",351,9,1497480053192," 1"," Successor2","c","d"," 8487"
"14160",351,10,1497480057232," 1"," Successor2","a","b"," 2375"
"14168",241,8,1497480247154," 2"," Constant1","b","d"," 25829"
"14169",241,9,1497480255401," 2"," Constant1","a","c"," 4480"
"14177",18,8,1497480305347," 4"," Identity1","b","c"," 21202"
"14178",18,9,1497480320579," 4"," Identity1","a","b"," 9449"
"14186",594,8,1497480349351," 0"," Successor1","b","a"," 4927"
"14187",594,9,1497480360315," 0"," Successor1","a","b"," 7585"
"14195",370,8,1497480555483," 1"," Successor2","a","b"," 9737"
"14196",370,9,1497480558419," 1"," Successor2","b","c"," 2269"
"14197",370,10,1497480561161," 1"," Successor2","c","d"," 2252"
"14205",650,8,1497480747405," 3"," Constant2","c","d"," 20268"
"14206",650,9,1497480751417," 3"," Constant2","a","c"," 2978"
"14207",650,10,1497480757483," 3"," Constant2","b","c"," 1846"
"14208",650,11,1497480761339," 3"," Constant2","d","e"," 3048"
"14215",31,8,1497480835400," 4"," Identity1","a","a"," 6040"
"14216",31,9,1497480845116," 4"," Identity1","b","b"," 5775"
"14236",190,8,1497481135841," 3"," Constant2","d","c"," 7682"
"14237",190,9,1497481142490," 3"," Constant2","c","e"," 4843"
"14238",190,10,1497481147388," 3"," Constant2","a","c"," 3041"
"14239",190,11,1497481151374," 3"," Constant2","b","c"," 1605"
"14247",181,8,1497481587418," 1"," Successor2","b","c"," 5647"
"14248",181,9,1497481597304," 1"," Successor2","c","d"," 5857"
"14249",181,10,1497481604439," 1"," Successor2","a","b"," 2750"
"14257",358,8,1497481436061," 0"," Successor1","a","b"," 6896"
"14258",358,9,1497481445752," 0"," Successor1","b","c"," 7566"
"14272",621,8,1497482348639," 1"," Successor2","b","b"," 44256"
"14273",621,9,1497482357887," 1"," Successor2","c","b"," 5224"
"14274",621,10,1497482364175," 1"," Successor2","a","b"," 3464"
"14282",129,8,1497482518823," 0"," Successor1","b","c"," 6070"
"14283",129,9,1497482522831," 0"," Successor1","a","c"," 3262"
"14291",580,8,1497482426595," 4"," Identity1","b","b"," 2003"
"14292",580,9,1497482430887," 4"," Identity1","a","a"," 2880"
"14300",275,8,1497482561179," 3"," Constant2","d","c"," 8746"
"14301",275,9,1497482565497," 3"," Constant2","b","c"," 2838"
"14302",275,10,1497482573961," 3"," Constant2","c","e"," 6445"
"14303",275,11,1497482577311," 3"," Constant2","a","c"," 2635"
"14311",453,8,1497482557697," 3"," Constant2","c","d"," 9143"
"14312",453,9,1497482569917," 3"," Constant2","d","a"," 6315"
"14313",453,10,1497482575454," 3"," Constant2","b","c"," 3539"
"14314",453,11,1497482581930," 3"," Constant2","a","c"," 3007"
"14322",443,8,1497482563022," 4"," Identity1","a","b"," 4549"
"14323",443,9,1497482575550," 4"," Identity1","b","c"," 11562"
"14331",239,8,1497482845426," 2"," Constant1","a","c"," 10343"
"14332",239,9,1497482862537," 2"," Constant1","b","a"," 15869"
"14340",395,8,1497482920277," 0"," Successor1","b","c"," 17182"
"14341",395,9,1497482929028," 0"," Successor1","a","b"," 6133"
"14355",115,8,1497483355865," 2"," Constant1","b","d"," 6856"
"14356",115,9,1497483362554," 2"," Constant1","a","d"," 3738"
"14364",444,8,1497483414650," 0"," Successor1","a","b"," 8019"
"14365",444,9,1497483426713," 0"," Successor1","b","a"," 9200"
"14373",11,8,1497483366592," 3"," Constant2","d","c"," 10529"
"14374",11,9,1497483379839," 3"," Constant2","c","e"," 11965"
"14375",11,10,1497483385421," 3"," Constant2","a","c"," 3957"
"14376",11,11,1497483389195," 3"," Constant2","b","c"," 2491"
"14384",213,8,1497483508546," 4"," Identity1","b","c"," 7815"
"14385",213,9,1497483512870," 4"," Identity1","a","a"," 2993"
"14393",250,8,1497483946272," 2"," Constant1","b","b"," 11395"
"14394",250,9,1497483958023," 2"," Constant1","a","c"," 6941"
"14402",169,8,1497484003465," 3"," Constant2","a","e"," 8504"
"14403",169,9,1497484018869," 3"," Constant2","b","e"," 14396"
"14404",169,10,1497484023943," 3"," Constant2","c","d"," 3957"
"14405",169,11,1497484030485," 3"," Constant2","d","e"," 4472"
"14413",57,8,1497483995481," 2"," Constant1","b","b"," 6053"
"14414",57,9,1497484004197," 2"," Constant1","a","c"," 5572"
"14422",332,8,1497484103029," 1"," Successor2","c","d"," 7602"
"14423",332,9,1497484114083," 1"," Successor2","a","b"," 9770"
"14424",332,10,1497484117655," 1"," Successor2","b","c"," 3055"
"14432",316,8,1497484253073," 0"," Successor1","a","b"," 10819"
"14433",316,9,1497484260064," 0"," Successor1","b","a"," 5295"
"14441",626,8,1497483808549," 1"," Successor2","c","d"," 7145"
"14442",626,9,1497483812805," 1"," Successor2","a","b"," 3177"
"14443",626,10,1497483816525," 1"," Successor2","b","c"," 2761"
"14451",205,8,1497484776068," 0"," Successor1","b","c"," 17272"
"14452",205,9,1497484788089," 0"," Successor1","a","c"," 9689"
"14460",70,8,1497484870828," 2"," Constant1","a","c"," 8925"
"14461",70,9,1497484881979," 2"," Constant1","b","a"," 6183"
"14468",152,8,1497484937933," 1"," Successor2","b","d"," 16334"
"14469",152,9,1497484946614," 1"," Successor2","c","b"," 5953"
"14470",152,10,1497484952833," 1"," Successor2","a","d"," 5196"
"14478",592,8,1497485177442," 4"," Identity1","b","c"," 14552"
"14479",592,9,1497485189011," 4"," Identity1","a","c"," 8173"
"14487",410,8,1497485198427," 3"," Constant2","d","e"," 28013"
"14488",410,9,1497485209243," 3"," Constant2","a","c"," 7990"
"14489",410,10,1497485217308," 3"," Constant2","b","c"," 5305"
"14490",410,11,1497485228778," 3"," Constant2","c","d"," 8390"
"14498",184,8,1497485221170," 4"," Identity1","b","b"," 2716"
"14499",184,9,1497485224083," 4"," Identity1","a","a"," 2443"
"14507",344,8,1497485740261," 0"," Successor1","a","b"," 3718"
"14508",344,9,1497485751006," 0"," Successor1","b","a"," 4335"
"14516",393,8,1497572413228," 2"," Constant1","b","d"," 4484"
"14517",393,9,1497572420409," 2"," Constant1","a","b"," 3328"
"14525",543,8,1497486149383," 3"," Constant2","c","d"," 24967"
"14526",543,9,1497486173461," 3"," Constant2","d","d"," 18585"
"14527",543,10,1497486188046," 3"," Constant2","b","c"," 4680"
"14528",543,11,1497486193836," 3"," Constant2","a","c"," 3002"
"14536",481,8,1497486174301," 1"," Successor2","a","b"," 7052"
"14537",481,9,1497486178879," 1"," Successor2","b","c"," 3273"
"14538",481,10,1497486184325," 1"," Successor2","c","d"," 4123"
"14546",187,8,1497486309585," 1"," Successor2","b","c"," 8161"
"14547",187,9,1497486314573," 1"," Successor2","c","b"," 3569"
"14548",187,10,1497486319962," 1"," Successor2","a","b"," 4959"
"14556",123,8,1497486376559," 3"," Constant2","d","e"," 6836"
"14557",123,9,1497486382501," 3"," Constant2","c","d"," 4712"
"14558",123,10,1497486385283," 3"," Constant2","b","c"," 2419"
"14559",123,11,1497486388340," 3"," Constant2","a","c"," 2150"
"14567",445,8,1497486582585," 2"," Constant1","b","d"," 4392"
"14568",445,9,1497486586695," 2"," Constant1","a","c"," 2707"
"14576",307,8,1497486598675," 4"," Identity1","b","b"," 4560"
"14577",307,9,1497486602893," 4"," Identity1","a","a"," 3501"
"14585",421,8,1497486772236," 2"," Constant1","b","d"," 18276"
"14586",421,9,1497486781685," 2"," Constant1","a","c"," 8642"
"14594",265,8,1497486886520," 0"," Successor1","a","b"," 4137"
"14595",265,9,1497486909914," 0"," Successor1","b","c"," 21413"
"14603",557,8,1497486958317," 0"," Successor1","b","c"," 10254"
"14604",557,9,1497486966276," 0"," Successor1","a","b"," 6264"
"14612",297,8,1497487155275," 2"," Constant1","b","d"," 12195"
"14613",297,9,1497487163878," 2"," Constant1","a","b"," 7019"
"14621",117,8,1497487120662," 1"," Successor2","c","d"," 8825"
"14622",117,9,1497487127244," 1"," Successor2","a","d"," 5738"
"14623",117,10,1497487134287," 1"," Successor2","b","c"," 4609"
"14631",429,8,1497487526044," 3"," Constant2","a","a"," 10299"
"14632",429,9,1497487535306," 3"," Constant2","b","b"," 6355"
"14633",429,10,1497487540787," 3"," Constant2","d","d"," 3459"
"14634",429,11,1497487548142," 3"," Constant2","c","c"," 6222"
"14642",303,8,1497488191098," 4"," Identity1","b","b"," 11587"
"14643",303,9,1497488195703," 4"," Identity1","a","a"," 3236"
"14651",379,8,1497488109243," 0"," Successor1","b","c"," 4985"
"14652",379,9,1497488116597," 0"," Successor1","a","b"," 5546"
"14660",530,8,1497489071680," 4"," Identity1","a","b"," 7773"
"14661",530,9,1497489089037," 4"," Identity1","b","b"," 14572"
"14669",95,8,1497491673450," 3"," Constant2","d","c"," 10044"
"14670",95,9,1497491679381," 3"," Constant2","b","c"," 4863"
"14671",95,10,1497491683235," 3"," Constant2","c","a"," 2850"
"14672",95,11,1497491686768," 3"," Constant2","a","c"," 2399"
"14680",486,8,1497494060188," 2"," Constant1","a","c"," 10821"
"14681",486,9,1497494069240," 2"," Constant1","b","a"," 7291"
"14689",561,8,1497539709722," 1"," Successor2","a","b"," 5392"
"14690",561,9,1497539718321," 1"," Successor2","b","c"," 6198"
"14691",561,10,1497539723688," 1"," Successor2","c","d"," 3847"
"14705",243,8,1497539813572," 1"," Successor2","a","b"," 14591"
"14706",243,9,1497539831422," 1"," Successor2","c","a"," 16752"
"14707",243,10,1497539839424," 1"," Successor2","b","c"," 6916"
"14715",620,8,1497539757236," 0"," Successor1","b","a"," 6615"
"14716",620,9,1497539764010," 0"," Successor1","a","b"," 5516"
"14724",353,8,1497539783484," 3"," Constant2","b","c"," 6008"
"14725",353,9,1497539787735," 3"," Constant2","a","c"," 3466"
"14726",353,10,1497539791924," 3"," Constant2","c","d"," 3642"
"14727",353,11,1497539795669," 3"," Constant2","d","c"," 3025"
"14735",1,8,1497539820370," 2"," Constant1","b","d"," 7347"
"14736",1,9,1497539824751," 2"," Constant1","a","c"," 2095"
"14744",61,8,1497539869126," 2"," Constant1","a","c"," 6369"
"14745",61,9,1497539887737," 2"," Constant1","b","a"," 15589"
"14753",450,8,1497539786116," 1"," Successor2","b","d"," 8279"
"14754",450,9,1497539790930," 1"," Successor2","c","b"," 4072"
"14755",450,10,1497539794382," 1"," Successor2","a","b"," 2870"
"14763",371,8,1497539883834," 3"," Constant2","b","c"," 18589"
"14764",371,9,1497539930261," 3"," Constant2","c","d"," 44626"
"14765",371,10,1497539938513," 3"," Constant2","d","c"," 5800"
"14766",371,11,1497539942325," 3"," Constant2","a","c"," 2643"
"14774",503,8,1497539939887," 0"," Successor1","b","c"," 12478"
"14775",503,9,1497539950590," 0"," Successor1","a","b"," 8627"
"14783",206,8,1497540004416," 4"," Identity1","b","b"," 9323"
"14784",206,9,1497540019973," 4"," Identity1","a","a"," 5587"
"14792",396,8,1497539896669," 1"," Successor2","c","d"," 8420"
"14793",396,9,1497539904500," 1"," Successor2","a","b"," 6245"
"14794",396,10,1497539910500," 1"," Successor2","b","c"," 4829"
"14802",291,8,1497539909363," 3"," Constant2","a","c"," 6847"
"14803",291,9,1497539923562," 3"," Constant2","b","c"," 3696"
"14804",291,10,1497539929003," 3"," Constant2","c","e"," 4976"
"14805",291,11,1497539933674," 3"," Constant2","d","e"," 3551"
"14813",508,8,1497539974535," 2"," Constant1","b","d"," 17895"
"14814",508,9,1497539986541," 2"," Constant1","a","d"," 7687"
"14822",623,8,1497540061574," 4"," Identity1","a","c"," 18147"
"14823",623,9,1497540074227," 4"," Identity1","b","c"," 9210"
"14831",566,8,1497539959521," 0"," Successor1","b","b"," 3810"
"14832",566,9,1497539964113," 0"," Successor1","a","c"," 3635"
"14840",459,8,1497540017096," 1"," Successor2","b","c"," 15855"
"14841",459,9,1497540021495," 1"," Successor2","a","b"," 3190"
"14842",459,10,1497540025321," 1"," Successor2","c","d"," 2618"
"14850",228,8,1497540009416," 0"," Successor1","a","b"," 4029"
"14851",228,9,1497540018592," 0"," Successor1","b","c"," 5860"
"14859",68,8,1497540157374," 2"," Constant1","a","c"," 12145"
"14860",68,9,1497540164600," 2"," Constant1","b","d"," 6514"
"14868",511,8,1497540021529," 3"," Constant2","b","c"," 2935"
"14869",511,9,1497540026248," 3"," Constant2","a","e"," 4016"
"14870",511,10,1497540031328," 3"," Constant2","d","b"," 3150"
"14871",511,11,1497540035576," 3"," Constant2","c","d"," 3384"
"14879",632,8,1497540008691," 4"," Identity1","b","b"," 4252"
"14880",632,9,1497540014763," 4"," Identity1","a","a"," 4799"
"14888",487,8,1497540085699," 0"," Successor1","a","b"," 4070"
"14889",487,9,1497540103282," 0"," Successor1","b","c"," 8944"
"14897",607,8,1497540082616," 2"," Constant1","a","c"," 4181"
"14898",607,9,1497540087358," 2"," Constant1","b","a"," 4064"
"14906",569,8,1497540184208," 3"," Constant2","b","c"," 4888"
"14907",569,9,1497540195831," 3"," Constant2","c","d"," 9853"
"14908",569,10,1497540212705," 3"," Constant2","d","c"," 8600"
"14909",569,11,1497540216860," 3"," Constant2","a","c"," 2589"
"14917",456,8,1497540140117," 1"," Successor2","c","d"," 5844"
"14918",456,9,1497540150105," 1"," Successor2","b","c"," 8834"
"14919",456,10,1497540153721," 1"," Successor2","a","b"," 2394"
"14927",45,8,1497540161657," 4"," Identity1","b","c"," 8063"
"14928",45,9,1497540171289," 4"," Identity1","a","a"," 7128"
"14936",544,8,1497540240931," 3"," Constant2","c","a"," 16845"
"14937",544,9,1497540253098," 3"," Constant2","a","c"," 9707"
"14938",544,10,1497540257994," 3"," Constant2","b","c"," 2755"
"14939",544,11,1497540267987," 3"," Constant2","d","c"," 8408"
"14947",480,8,1497540210632," 0"," Successor1","b","c"," 7835"
"14948",480,9,1497540217197," 0"," Successor1","a","b"," 5104"
"14956",50,8,1497540272445," 4"," Identity1","b","c"," 9374"
"14957",50,9,1497540275733," 4"," Identity1","a","a"," 2099"
"14965",485,8,1497540360485," 2"," Constant1","b","d"," 6767"
"14966",485,9,1497540366403," 2"," Constant1","a","d"," 4327"
"14974",361,8,1497540240611," 1"," Successor2","a","b"," 11776"
"14975",361,9,1497540252348," 1"," Successor2","c","d"," 10088"
"14976",361,10,1497540255868," 1"," Successor2","b","c"," 2249"
"14984",479,8,1497540360055," 1"," Successor2","c","d"," 6753"
"14985",479,9,1497540365952," 1"," Successor2","a","b"," 3718"
"14986",479,10,1497540371061," 1"," Successor2","b","c"," 3686"
"14994",43,8,1497540304882," 2"," Constant1","b","d"," 14708"
"14995",43,9,1497540314009," 2"," Constant1","a","c"," 7605"
"15003",46,8,1497540567503," 4"," Identity1","a","a"," 8346"
"15004",46,9,1497540579249," 4"," Identity1","b","c"," 9066"
"15012",475,8,1497540624389," 0"," Successor1","b","b"," 4443"
"15013",475,9,1497540631660," 0"," Successor1","a","c"," 3425"
"15021",564,8,1497540878070," 3"," Constant2","d","c"," 38148"
"15022",564,9,1497540903744," 3"," Constant2","b","c"," 17845"
"15023",564,10,1497540934557," 3"," Constant2","c","c"," 28958"
"15024",564,11,1497540947195," 3"," Constant2","a","c"," 11160"
"15032",268,8,1497540940929," 4"," Identity1","b","b"," 3831"
"15033",268,9,1497540949680," 4"," Identity1","a","a"," 7631"
"15041",122,8,1497540977820," 2"," Constant1","b","a"," 11556"
"15042",122,9,1497540984867," 2"," Constant1","a","a"," 5423"
"15050",4,8,1497541133531," 0"," Successor1","b","c"," 7036"
"15051",4,9,1497541139085," 0"," Successor1","a","b"," 3352"
"15059",76,8,1497541892295," 4"," Identity1","b","b"," 3996"
"15060",76,9,1497541897145," 4"," Identity1","a","a"," 2833"
"15068",105,8,1497541939551," 1"," Successor2","b","d"," 6156"
"15069",105,9,1497541949250," 1"," Successor2","a","b"," 8532"
"15070",105,10,1497541955147," 1"," Successor2","c","d"," 4461"
"15078",125,8,1497541943878," 3"," Constant2","c","e"," 8513"
"15079",125,9,1497541952582," 3"," Constant2","d","a"," 7529"
"15080",125,10,1497541960444," 3"," Constant2","b","e"," 5575"
"15081",125,11,1497541968646," 3"," Constant2","a","c"," 7201"
"15089",47,8,1497541948455," 4"," Identity1","b","b"," 3753"
"15090",47,9,1497541951953," 4"," Identity1","a","a"," 2177"
"15098",567,8,1497542141938," 2"," Constant1","a","c"," 5332"
"15099",567,9,1497542149656," 2"," Constant1","b","d"," 6067"
"15107",405,8,1497542466409," 0"," Successor1","a","b"," 8731"
"15108",405,9,1497542485070," 0"," Successor1","b","c"," 17552"
"15116",615,8,1497542536650," 3"," Constant2","a","c"," 10021"
"15117",615,9,1497542549946," 3"," Constant2","d","a"," 10850"
"15118",615,10,1497542554613," 3"," Constant2","b","c"," 3436"
"15119",615,11,1497542570302," 3"," Constant2","c","b"," 14053"
"15127",314,8,1497542630266," 1"," Successor2","c","d"," 9085"
"15128",314,9,1497542637017," 1"," Successor2","a","b"," 4756"
"15129",314,10,1497542645192," 1"," Successor2","b","c"," 3405"
"15137",88,8,1497542907039," 3"," Constant2","a","c"," 14104"
"15138",88,9,1497542919095," 3"," Constant2","d","e"," 10828"
"15139",88,10,1497542932281," 3"," Constant2","c","a"," 12017"
"15140",88,11,1497542937547," 3"," Constant2","b","c"," 4067"
"15148",305,8,1497543396096," 2"," Constant1","a","c"," 5604"
"15149",305,9,1497543412365," 2"," Constant1","b","d"," 13742"
"15157",82,8,1497543692760," 4"," Identity1","a","a"," 5738"
"15158",82,9,1497543706103," 4"," Identity1","b","b"," 12019"
"15166",204,8,1497544393083," 0"," Successor1","a","b"," 11170"
"15167",204,9,1497544401889," 0"," Successor1","b","a"," 8125"
"15181",119,8,1497546096702," 1"," Successor2","a","b"," 8049"
"15182",119,9,1497546106348," 1"," Successor2","c","d"," 5720"
"15183",119,10,1497546113740," 1"," Successor2","b","c"," 5063"
"15191",498,8,1497546085673," 4"," Identity1","b","b"," 13383"
"15192",498,9,1497546093576," 4"," Identity1","a","a"," 4744"
"15211",89,8,1497546295152," 0"," Successor1","a","b"," 17076"
"15212",89,9,1497546304033," 0"," Successor1","b","c"," 7171"
"15220",137,8,1497546564243," 3"," Constant2","a","c"," 3137"
"15221",137,9,1497546589434," 3"," Constant2","c","b"," 20999"
"15222",137,10,1497546596122," 3"," Constant2","d","c"," 5112"
"15223",137,11,1497546600922," 3"," Constant2","b","c"," 3015"
"15231",633,8,1497546978155," 2"," Constant1","b","d"," 13138"
"15232",633,9,1497546992909," 2"," Constant1","a","b"," 11733"
"15240",235,8,1497547056942," 2"," Constant1","a","c"," 7236"
"15241",235,9,1497547077765," 2"," Constant1","b","a"," 18993"
"15249",40,8,1497547036348," 4"," Identity1","b","b"," 5128"
"15250",40,9,1497547041500," 4"," Identity1","a","a"," 3456"
"15258",611,8,1497547392575," 0"," Successor1","b","c"," 9830"
"15259",611,9,1497547401686," 0"," Successor1","a","b"," 7720"
"15267",339,8,1497547488216," 1"," Successor2","b","c"," 10796"
"15268",339,9,1497547493296," 1"," Successor2","a","b"," 3356"
"15269",339,10,1497547497595," 1"," Successor2","c","d"," 3541"
"15278",270,8,1497547701394," 3"," Constant2","c","d"," 19269"
"15279",270,9,1497547709140," 3"," Constant2","a","c"," 4846"
"15280",270,10,1497547713762," 3"," Constant2","b","c"," 3491"
"15281",270,11,1497547718898," 3"," Constant2","d","e"," 3995"
"15289",37,8,1497548176171," 1"," Successor2","b","c"," 7232"
"15290",37,9,1497548180762," 1"," Successor2","a","b"," 2632"
"15291",37,10,1497548186658," 1"," Successor2","c","d"," 4600"
"15299",182,8,1497548603677," 2"," Constant1","a","c"," 10655"
"15300",182,9,1497548624748," 2"," Constant1","b","d"," 19288"
"15308",518,8,1497549137389," 4"," Identity1","b","b"," 8327"
"15309",518,9,1497549154238," 4"," Identity1","a","b"," 10966"
"15317",248,8,1497549299777," 0"," Successor1","b","b"," 6055"
"15318",248,9,1497549305002," 0"," Successor1","a","b"," 3576"
"15326",457,8,1497549206571," 1"," Successor2","c","d"," 5848"
"15327",457,9,1497549219827," 1"," Successor2","b","c"," 12253"
"15328",457,10,1497549224266," 1"," Successor2","a","b"," 3011"
"15336",548,8,1497549827427," 0"," Successor1","a","b"," 6703"
"15337",548,9,1497549839530," 0"," Successor1","b","c"," 10159"
"15345",35,8,1497549690116," 3"," Constant2","d","c"," 9090"
"15346",35,9,1497549697653," 3"," Constant2","b","c"," 6318"
"15347",35,10,1497549707736," 3"," Constant2","c","c"," 8959"
"15348",35,11,1497549713315," 3"," Constant2","a","c"," 4839"
"15356",161,8,1497550765975," 1"," Successor2","c","d"," 15333"
"15357",161,9,1497550772842," 1"," Successor2","b","c"," 5183"
"15358",161,10,1497550779243," 1"," Successor2","a","b"," 4423"
"15366",553,8,1497550735730," 4"," Identity1","b","b"," 7361"
"15367",553,9,1497550742581," 4"," Identity1","a","a"," 5368"
"15375",208,8,1497550745379," 2"," Constant1","a","c"," 5374"
"15376",208,9,1497550751562," 2"," Constant1","b","d"," 5294"
"15384",374,8,1497550884414," 1"," Successor2","c","d"," 8139"
"15385",374,9,1497550895070," 1"," Successor2","a","b"," 8329"
"15386",374,10,1497550898142," 1"," Successor2","b","c"," 2336"
"15394",66,8,1497550878467," 2"," Constant1","a","c"," 15897"
"15395",66,9,1497550887770," 2"," Constant1","b","d"," 8492"
"15403",636,8,1497551032038," 3"," Constant2","c","a"," 5607"
"15404",636,9,1497551034712," 3"," Constant2","a","b"," 788"
"15405",636,10,1497551038358," 3"," Constant2","d","e"," 2908"
"15406",636,11,1497551041394," 3"," Constant2","b","b"," 2136"
"15414",419,8,1497551188647," 0"," Successor1","b","c"," 4774"
"15415",419,9,1497551199029," 0"," Successor1","a","b"," 6060"
"15423",256,8,1497551266470," 4"," Identity1","b","c"," 10335"
"15424",256,9,1497551279622," 4"," Identity1","a","c"," 11003"
"15432",306,8,1497551325562," 3"," Constant2","a","c"," 22036"
"15433",306,9,1497551346553," 3"," Constant2","d","c"," 18235"
"15434",306,10,1497551351582," 3"," Constant2","b","c"," 3624"
"15435",306,11,1497551385021," 3"," Constant2","c","d"," 32678"
"15444",197,8,1497551675668," 0"," Successor1","a","b"," 6969"
"15445",197,9,1497551692183," 0"," Successor1","b","c"," 10130"
"15453",546,8,1497551743871," 1"," Successor2","c","d"," 11104"
"15454",546,9,1497551750334," 1"," Successor2","a","b"," 4694"
"15455",546,10,1497551755083," 1"," Successor2","b","c"," 3411"
"15463",547,8,1497552200972," 2"," Constant1","b","a"," 6499"
"15464",547,9,1497552206587," 2"," Constant1","a","c"," 4052"
"15472",183,8,1497552327554," 4"," Identity1","a","a"," 6724"
"15473",183,9,1497552334753," 4"," Identity1","b","b"," 5361"
"15481",149,8,1497552393420," 3"," Constant2","a","c"," 4921"
"15482",149,9,1497552403899," 3"," Constant2","d","c"," 8780"
"15483",149,10,1497552411016," 3"," Constant2","b","c"," 3148"
"15484",149,11,1497552424150," 3"," Constant2","c","c"," 12182"
"15492",588,8,1497552422734," 3"," Constant2","a","c"," 28515"
"15493",588,9,1497552428318," 3"," Constant2","c","d"," 4391"
"15494",588,10,1497552437492," 3"," Constant2","d","b"," 4872"
"15495",588,11,1497552442926," 3"," Constant2","b","a"," 4466"
"15503",269,8,1497552415301," 4"," Identity1","a","a"," 2773"
"15504",269,9,1497552418173," 4"," Identity1","b","b"," 1657"
"15512",504,8,1497552495957," 2"," Constant1","a","c"," 3615"
"15513",504,9,1497552502797," 2"," Constant1","b","d"," 4368"
"15521",155,8,1497552641978," 1"," Successor2","c","d"," 4937"
"15522",155,9,1497552646907," 1"," Successor2","a","b"," 3468"
"15523",155,10,1497552650701," 1"," Successor2","b","c"," 2386"
"15532",540,8,1497552799360," 0"," Successor1","a","b"," 5999"
"15533",540,9,1497552808367," 0"," Successor1","b","c"," 7479"
"15541",318,8,1497552754413," 3"," Constant2","d","c"," 10111"
"15542",318,9,1497552764493," 3"," Constant2","a","c"," 4547"
"15543",318,10,1497552772682," 3"," Constant2","c","b"," 5445"
"15544",318,11,1497552777945," 3"," Constant2","b","c"," 3710"
"15552",532,8,1497552961211," 4"," Identity1","a","a"," 6250"
"15553",532,9,1497552966133," 4"," Identity1","b","b"," 3596"
"15561",157,8,1497553399587," 0"," Successor1","b","c"," 9523"
"15562",157,9,1497553410852," 0"," Successor1","a","b"," 9463"
"15570",496,8,1497553787740," 1"," Successor2","a","c"," 22887"
"15571",496,9,1497553796496," 1"," Successor2","c","c"," 7063"
"15572",496,10,1497553803278," 1"," Successor2","b","c"," 4088"
"15580",562,8,1497553841329," 2"," Constant1","a","c"," 6344"
"15581",562,9,1497553851622," 2"," Constant1","b","d"," 8701"
"15589",139,8,1497555423244," 2"," Constant1","a","c"," 10709"
"15590",139,9,1497555466551," 2"," Constant1","b","d"," 36861"
"15598",174,8,1497554425466," 1"," Successor2","b","c"," 13757"
"15599",174,9,1497554443810," 1"," Successor2","c","a"," 15623"
"15600",174,10,1497554448033," 1"," Successor2","a","d"," 3190"
"15608",254,8,1497555288266," 4"," Identity1","b","b"," 11985"
"15609",254,9,1497555291210," 4"," Identity1","a","a"," 2400"
"15617",492,8,1497556287267," 3"," Constant2","b","c"," 13677"
"15618",492,9,1497556300380," 3"," Constant2","a","c"," 5947"
"15619",492,10,1497556312503," 3"," Constant2","c","e"," 10184"
"15620",492,11,1497556338147," 3"," Constant2","d","e"," 24489"
"15627",521,8,1497556508218," 0"," Successor1","a","b"," 9528"
"15628",521,9,1497556520700," 0"," Successor1","b","c"," 11098"
"15636",289,8,1497556450425," 2"," Constant1","a","c"," 6948"
"15637",289,9,1497556458125," 2"," Constant1","b","d"," 6129"
"15645",478,8,1497556924051," 3"," Constant2","c","e"," 37939"
"15646",478,9,1497556943754," 3"," Constant2","b","c"," 17863"
"15647",478,10,1497556953567," 3"," Constant2","d","c"," 7943"
"15648",478,11,1497556965031," 3"," Constant2","a","c"," 9437"
"15656",595,8,1497557168521," 0"," Successor1","b","c"," 8345"
"15657",595,9,1497557174253," 0"," Successor1","a","c"," 4363"
"15665",170,8,1497558664719," 4"," Identity1","a","a"," 4869"
"15666",170,9,1497558674096," 4"," Identity1","b","b"," 7487"
"15674",555,8,1497558674546," 1"," Successor2","c","d"," 18906"
"15675",555,9,1497558691845," 1"," Successor2","b","c"," 15865"
"15676",555,10,1497558701750," 1"," Successor2","a","b"," 8608"
"15684",272,8,1497559033206," 3"," Constant2","b","c"," 3791"
"15685",272,9,1497559038076," 3"," Constant2","d","e"," 3987"
"15686",272,10,1497559042651," 3"," Constant2","a","c"," 2982"
"15687",272,11,1497559046315," 3"," Constant2","c","b"," 2927"
"15695",173,8,1497559228982," 3"," Constant2","b","c"," 4025"
"15696",173,9,1497559235420," 3"," Constant2","d","c"," 5830"
"15697",173,10,1497559239284," 3"," Constant2","a","c"," 3047"
"15698",173,11,1497559242861," 3"," Constant2","c","c"," 2320"
"15706",158,8,1497559405170," 1"," Successor2","c","d"," 10704"
"15707",158,9,1497559413224," 1"," Successor2","b","c"," 6607"
"15708",158,10,1497559417224," 1"," Successor2","a","b"," 2664"
"15716",606,8,1497559527874," 2"," Constant1","b","d"," 52282"
"15717",606,9,1497559534406," 2"," Constant1","a","c"," 4373"
"15725",141,8,1497559472025," 0"," Successor1","a","b"," 9584"
"15726",141,9,1497559483356," 0"," Successor1","b","a"," 10415"
"15734",497,8,1497559519989," 4"," Identity1","a","a"," 17880"
"15735",497,9,1497559529001," 4"," Identity1","b","b"," 8287"
"15743",539,8,1497559491787," 3"," Constant2","c","d"," 9645"
"15744",539,9,1497559503659," 3"," Constant2","b","d"," 9428"
"15745",539,10,1497559512141," 3"," Constant2","d","e"," 7172"
"15746",539,11,1497559516268," 3"," Constant2","a","c"," 3284"
"15754",401,8,1497559610489," 0"," Successor1","b","a"," 6057"
"15755",401,9,1497559615030," 0"," Successor1","a","b"," 3494"
"15763",128,8,1497560024468," 2"," Constant1","b","d"," 12506"
"15764",128,9,1497560032528," 2"," Constant1","a","c"," 6576"
"15772",162,8,1497560411276," 4"," Identity1","b","b"," 5575"
"15773",162,9,1497560414415," 4"," Identity1","a","a"," 2272"
"15781",340,8,1497560664092," 1"," Successor2","b","c"," 14767"
"15782",340,9,1497560691378," 1"," Successor2","a","d"," 24346"
"15783",340,10,1497560704076," 1"," Successor2","c","d"," 11021"
"15791",473,8,1497560599493," 1"," Successor2","b","c"," 10798"
"15792",473,9,1497560606082," 1"," Successor2","c","d"," 3817"
"15793",473,10,1497560612523," 1"," Successor2","a","b"," 4556"
"15801",341,8,1497560851847," 3"," Constant2","a","c"," 5939"
"15802",341,9,1497560868373," 3"," Constant2","c","d"," 13905"
"15803",341,10,1497560876770," 3"," Constant2","d","c"," 7588"
"15804",341,11,1497560881187," 3"," Constant2","b","c"," 2994"
"15812",10,8,1497561540576," 4"," Identity1","b","b"," 6111"
"15813",10,9,1497561544999," 4"," Identity1","a","a"," 3836"
"15821",200,8,1497561903541," 2"," Constant1","a","c"," 7944"
"15822",200,9,1497561910006," 2"," Constant1","b","d"," 5852"
"15830",286,8,1497561691399," 0"," Successor1","a","b"," 4550"
"15831",286,9,1497561700560," 0"," Successor1","b","c"," 3033"
"15839",322,8,1497561734702," 3"," Constant2","d","c"," 11544"
"15840",322,9,1497561739108," 3"," Constant2","b","c"," 2273"
"15841",322,10,1497561744959," 3"," Constant2","c","e"," 4970"
"15842",322,11,1497561748092," 3"," Constant2","a","c"," 2431"
"15850",39,8,1497561784159," 4"," Identity1","b","c"," 9397"
"15851",39,9,1497561796531," 4"," Identity1","a","a"," 8500"
"15860",310,8,1497562106056," 1"," Successor2","b","d"," 19595"
"15861",310,9,1497562120976," 1"," Successor2","a","b"," 11446"
"15862",310,10,1497562145106," 1"," Successor2","c","d"," 20980"
"15870",418,8,1497562123858," 0"," Successor1","a","c"," 6365"
"15871",418,9,1497562130631," 0"," Successor1","b","a"," 4639"
"15879",224,8,1497562148094," 2"," Constant1","a","c"," 8336"
"15880",224,9,1497562154629," 2"," Constant1","b","d"," 4742"
"15888",160,8,1497562387463," 2"," Constant1","a","c"," 3020"
"15889",160,9,1497562395463," 2"," Constant1","b","d"," 5962"
"15897",223,8,1497562398790," 1"," Successor2","b","d"," 17094"
"15898",223,9,1497562411892," 1"," Successor2","c","d"," 10957"
"15899",223,10,1497562418941," 1"," Successor2","a","b"," 4712"
"15907",447,8,1497562526340," 3"," Constant2","c","e"," 14088"
"15908",447,9,1497562535972," 3"," Constant2","d","e"," 8560"
"15909",447,10,1497562541858," 3"," Constant2","b","c"," 4976"
"15910",447,11,1497562547422," 3"," Constant2","a","c"," 4703"
"15918",373,8,1497562672914," 4"," Identity1","a","a"," 3756"
"15919",373,9,1497562681559," 4"," Identity1","b","b"," 4420"
"15927",196,8,1497562973125," 0"," Successor1","a","c"," 14063"
"15928",196,9,1497562984966," 0"," Successor1","b","a"," 6528"
"15936",407,8,1497563105311," 4"," Identity1","b","c"," 3772"
"15937",407,9,1497563114161," 4"," Identity1","a","c"," 6432"
"15945",240,8,1497563382418," 0"," Successor1","b","c"," 6618"
"15946",240,9,1497563393095," 0"," Successor1","a","b"," 8959"
"15954",359,8,1497563455336," 1"," Successor2","a","b"," 7798"
"15955",359,9,1497563459551," 1"," Successor2","b","c"," 3622"
"15956",359,10,1497563468264," 1"," Successor2","c","d"," 8048"
"15964",328,8,1497563613952," 3"," Constant2","b","c"," 11687"
"15965",328,9,1497563618055," 3"," Constant2","a","c"," 2143"
"15966",328,10,1497563624031," 3"," Constant2","c","e"," 4768"
"15967",328,11,1497563630215," 3"," Constant2","d","c"," 4736"
"15975",273,8,1497563914560," 2"," Constant1","b","b"," 10138"
"15976",273,9,1497563925562," 2"," Constant1","a","d"," 7132"
"15984",231,8,1497565351411," 3"," Constant2","b","c"," 15211"
"15985",231,9,1497565356909," 3"," Constant2","a","c"," 3784"
"15986",231,10,1497565365181," 3"," Constant2","d","c"," 6117"
"15987",231,11,1497565370091," 3"," Constant2","c","e"," 3907"
"15995",583,8,1497565380215," 1"," Successor2","b","c"," 11143"
"15996",583,9,1497565387367," 1"," Successor2","a","b"," 6119"
"15997",583,10,1497565399334," 1"," Successor2","c","d"," 10583"
"16005",604,8,1497565905778," 0"," Successor1","b","c"," 3644"
"16006",604,9,1497565912284," 0"," Successor1","a","b"," 4104"
"16014",531,8,1497566347872," 2"," Constant1","b","c"," 9478"
"16015",531,9,1497566354895," 2"," Constant1","a","c"," 5464"
"16023",324,8,1497566436758," 4"," Identity1","b","c"," 6289"
"16024",324,9,1497566441133," 4"," Identity1","a","a"," 3519"
"16032",312,8,1497566490348," 0"," Successor1","b","c"," 7856"
"16033",312,9,1497566501267," 0"," Successor1","a","b"," 9203"
"16041",329,8,1497566542540," 1"," Successor2","c","d"," 7959"
"16042",329,9,1497566550596," 1"," Successor2","b","c"," 6479"
"16043",329,10,1497566556076," 1"," Successor2","a","b"," 3321"
"16051",348,8,1497566682841," 3"," Constant2","a","c"," 5283"
"16052",348,9,1497566700257," 3"," Constant2","d","e"," 15040"
"16053",348,10,1497566708282," 3"," Constant2","b","c"," 5448"
"16054",348,11,1497566719467," 3"," Constant2","c","d"," 9971"
"16062",266,8,1497566800936," 2"," Constant1","b","d"," 5336"
"16063",266,9,1497566806639," 2"," Constant1","a","c"," 4072"
"16071",69,8,1497567233409," 4"," Identity1","b","b"," 4343"
"16072",69,9,1497567240124," 4"," Identity1","a","a"," 5947"
"16080",426,8,1497567490391," 1"," Successor2","b","b"," 18038"
"16081",426,9,1497567506349," 1"," Successor2","a","b"," 4959"
"16082",426,10,1497567511767," 1"," Successor2","c","d"," 4301"
"16090",545,8,1497567699974," 4"," Identity1","a","a"," 6304"
"16091",545,9,1497567723997," 4"," Identity1","b","a"," 22688"
"16099",550,8,1497567724839," 2"," Constant1","b","a"," 5190"
"16100",550,9,1497567740638," 2"," Constant1","a","c"," 9832"
"16108",166,8,1497568108928," 3"," Constant2","c","c"," 5624"
"16109",166,9,1497568119495," 3"," Constant2","a","c"," 9853"
"16110",166,10,1497568123518," 3"," Constant2","b","c"," 3128"
"16111",166,11,1497568127231," 3"," Constant2","d","d"," 3087"
"16119",36,8,1497568284679," 0"," Successor1","b","c"," 9289"
"16120",36,9,1497568293500," 0"," Successor1","a","b"," 6231"
"16128",17,8,1497568864843," 2"," Constant1","b","c"," 4420"
"16129",17,9,1497568878254," 2"," Constant1","a","c"," 9720"
"16137",267,8,1497583680558," 4"," Identity1","b","b"," 2982"
"16138",267,9,1497583684187," 4"," Identity1","a","a"," 2475"
"16146",357,8,1497583733352," 1"," Successor2","c","d"," 15528"
"16147",357,9,1497583745047," 1"," Successor2","b","c"," 10498"
"16148",357,10,1497583754663," 1"," Successor2","a","b"," 3156"
"16156",491,8,1497583826552," 3"," Constant2","b","c"," 9130"
"16157",491,9,1497583841710," 3"," Constant2","d","c"," 10152"
"16158",491,10,1497583853009," 3"," Constant2","c","b"," 4738"
"16159",491,11,1497583882917," 3"," Constant2","a","c"," 6103"
"16167",185,8,1497583821072," 0"," Successor1","b","c"," 5257"
"16168",185,9,1497583830317," 0"," Successor1","a","b"," 6112"
"16176",226,8,1497583817729," 2"," Constant1","b","d"," 5815"
"16177",226,9,1497583827723," 2"," Constant1","a","c"," 7792"
"16185",112,8,1497583897483," 4"," Identity1","a","a"," 3354"
"16186",112,9,1497583903183," 4"," Identity1","b","c"," 4222"
"16194",469,8,1497584451610," 0"," Successor1","b","c"," 4252"
"16195",469,9,1497584461591," 0"," Successor1","a","b"," 7107"
"16203",512,8,1497584352743," 1"," Successor2","b","c"," 28573"
"16204",512,9,1497584373982," 1"," Successor2","c","a"," 19954"
"16205",512,10,1497584377760," 1"," Successor2","a","c"," 2684"
"16213",59,8,1497584415615," 3"," Constant2","b","c"," 6354"
"16214",59,9,1497584421351," 3"," Constant2","d","c"," 4889"
"16215",59,10,1497584424653," 3"," Constant2","a","c"," 2767"
"16216",59,11,1497584428589," 3"," Constant2","c","e"," 3488"
"16224",585,8,1497584446376," 1"," Successor2","a","b"," 35111"
"16225",585,9,1497584459183," 1"," Successor2","c","d"," 10596"
"16226",585,10,1497584475425," 1"," Successor2","b","c"," 7415"
"16234",394,8,1497584464337," 2"," Constant1","b","c"," 27913"
"16235",394,9,1497584482794," 2"," Constant1","a","d"," 10575"
"16243",191,8,1497584466350," 0"," Successor1","b","c"," 5943"
"16244",191,9,1497584472948," 0"," Successor1","a","b"," 3431"
"16252",99,8,1497584811746," 4"," Identity1","a","b"," 16292"
"16253",99,9,1497584823150," 4"," Identity1","b","b"," 10039"
"16261",449,8,1497584872582," 3"," Constant2","a","c"," 23133"
"16262",449,9,1497584903556," 3"," Constant2","d","a"," 29722"
"16263",449,10,1497584916716," 3"," Constant2","c","d"," 12381"
"16264",449,11,1497584937404," 3"," Constant2","b","c"," 18102"
"16272",48,8,1497584973096," 0"," Successor1","b","a"," 5725"
"16273",48,9,1497584979862," 0"," Successor1","a","b"," 5516"
"16287",538,8,1497585674731," 4"," Identity1","b","b"," 12156"
"16288",538,9,1497585683364," 4"," Identity1","a","a"," 6802"
"16297",113,8,1497585804885," 2"," Constant1","b","d"," 6161"
"16298",113,9,1497585820602," 2"," Constant1","a","c"," 13483"
"16306",643,8,1497585874276," 3"," Constant2","d","e"," 10811"
"16307",643,9,1497585881576," 3"," Constant2","a","e"," 6124"
"16308",643,10,1497585887589," 3"," Constant2","b","c"," 4487"
"16309",643,11,1497585893148," 3"," Constant2","c","e"," 3710"
"16317",430,8,1497588073045," 1"," Successor2","c","b"," 14689"
"16318",430,9,1497588084082," 1"," Successor2","b","c"," 8808"
"16319",430,10,1497588092082," 1"," Successor2","a","b"," 5135"
"16327",234,8,1497588180635," 4"," Identity1","a","a"," 5783"
"16328",234,9,1497588190947," 4"," Identity1","b","b"," 7552"
"16336",388,8,1497588218795," 0"," Successor1","a","c"," 5554"
"16337",388,9,1497588233092," 0"," Successor1","b","b"," 11568"
"16345",482,8,1497588601248," 1"," Successor2","a","a"," 18144"
"16346",482,9,1497588617703," 1"," Successor2","c","a"," 13894"
"16347",482,10,1497588624801," 1"," Successor2","b","c"," 4616"
"16355",304,8,1497589053357," 2"," Constant1","b","d"," 7606"
"16356",304,9,1497589061323," 2"," Constant1","a","c"," 5636"
"16364",558,8,1497589321075," 3"," Constant2","b","c"," 10024"
"16365",558,9,1497589336956," 3"," Constant2","c","b"," 10118"
"16366",558,10,1497589346204," 3"," Constant2","a","c"," 3679"
"16367",558,11,1497589356525," 3"," Constant2","d","c"," 8128"
"16375",216,8,1497589843019," 3"," Constant2","d","e"," 12616"
"16376",216,9,1497589851412," 3"," Constant2","c","e"," 5216"
"16377",216,10,1497589857906," 3"," Constant2","b","c"," 4306"
"16378",216,11,1497589862578," 3"," Constant2","a","c"," 2339"
"16386",634,8,1497590643968," 2"," Constant1","a","c"," 5120"
"16387",634,9,1497590658511," 2"," Constant1","b","d"," 7715"
"16395",345,8,1497591191094," 4"," Identity1","a","c"," 8310"
"16396",345,9,1497591197882," 4"," Identity1","b","b"," 5158"
"16405",3,8,1497591259205," 0"," Successor1","a","c"," 13423"
"16406",3,9,1497591269054," 0"," Successor1","b","c"," 9009"
"16414",116,8,1497592231981," 1"," Successor2","c","d"," 25202"
"16415",116,9,1497592236871," 1"," Successor2","a","b"," 3325"
"16416",116,10,1497592240570," 1"," Successor2","b","c"," 2282"
"16424",349,8,1497592607685," 4"," Identity1","b","c"," 5000"
"16425",349,9,1497592618865," 4"," Identity1","a","a"," 5032"
"16433",350,8,1497594465712," 2"," Constant1","b","d"," 10500"
"16434",350,9,1497594470258," 2"," Constant1","a","c"," 3002"
"16442",593,8,1497594662531," 3"," Constant2","c","d"," 14823"
"16443",593,9,1497594670381," 3"," Constant2","b","c"," 6570"
"16444",593,10,1497594678524," 3"," Constant2","d","e"," 5730"
"16445",593,11,1497594683644," 3"," Constant2","a","c"," 3600"
"16453",406,8,1497595086630," 1"," Successor2","b","a"," 3953"
"16454",406,9,1497595094156," 1"," Successor2","a","b"," 6120"
"16455",406,10,1497595100234," 1"," Successor2","c","d"," 4062"
"16463",346,8,1497595155177," 2"," Constant1","a","c"," 13714"
"16464",346,9,1497595215119," 2"," Constant1","b","b"," 5389"
"16472",164,8,1497595292883," 0"," Successor1","b","c"," 11519"
"16473",164,9,1497595303507," 0"," Successor1","a","b"," 7040"
"16481",474,8,1497595875824," 1"," Successor2","a","b"," 35500"
"16482",474,9,1497595891387," 1"," Successor2","c","d"," 14266"
"16483",474,10,1497595902524," 1"," Successor2","b","c"," 8156"
"16491",651,8,1497597079932," 0"," Successor1","b","a"," 22206"
"16492",651,9,1497597095337," 0"," Successor1","a","b"," 14050"
"16500",571,8,1497598355885," 3"," Constant2","a","c"," 16566"
"16501",571,9,1497598371380," 3"," Constant2","b","c"," 8053"
"16502",571,10,1497598380098," 3"," Constant2","d","a"," 7419"
"16503",571,11,1497598410733," 3"," Constant2","c","d"," 28780"
"16511",163,8,1497598495464," 4"," Identity1","b","b"," 2347"
"16512",163,9,1497598500208," 4"," Identity1","a","a"," 3889"
"16520",202,8,1497598446529," 1"," Successor2","c","d"," 7065"
"16521",202,9,1497598453873," 1"," Successor2","a","b"," 6723"
"16522",202,10,1497598463371," 1"," Successor2","b","c"," 8878"
"16530",352,8,1497598705277," 3"," Constant2","a","e"," 8958"
"16531",352,9,1497598712479," 3"," Constant2","b","c"," 4910"
"16532",352,10,1497598714506," 3"," Constant2","c","d"," 1612"
"16533",352,11,1497598716132," 3"," Constant2","d","e"," 962"
"16541",143,8,1497598810844," 0"," Successor1","b","c"," 13976"
"16542",143,9,1497598815685," 0"," Successor1","a","b"," 4383"
"16550",381,8,1497601213292," 4"," Identity1","a","a"," 8727"
"16551",381,9,1497601220100," 4"," Identity1","b","b"," 5351"
"16559",356,8,1497601386184," 2"," Constant1","b","d"," 5451"
"16560",356,9,1497601391726," 2"," Constant1","a","c"," 3973"
"16568",130,8,1497601500600," 0"," Successor1","a","b"," 4864"
"16569",130,9,1497601509658," 0"," Successor1","b","a"," 7037"
"16577",411,8,1497601841323," 3"," Constant2","d","e"," 6447"
"16578",411,9,1497601846883," 3"," Constant2","c","b"," 3664"
"16579",411,10,1497601852131," 3"," Constant2","b","c"," 4319"
"16580",411,11,1497601855363," 3"," Constant2","a","c"," 2440"
"16588",110,8,1497601930092," 2"," Constant1","a","a"," 3986"
"16589",110,9,1497601946291," 2"," Constant1","b","d"," 8898"
"16597",434,8,1497601963095," 1"," Successor2","b","c"," 3805"
"16598",434,9,1497601967152," 1"," Successor2","a","b"," 2704"
"16599",434,10,1497601974847," 1"," Successor2","c","a"," 7034"
"16608",563,8,1497602241297," 4"," Identity1","b","b"," 8045"
"16609",563,9,1497602246251," 4"," Identity1","a","a"," 3740"
"16617",179,8,1497602679066," 1"," Successor2","c","d"," 7095"
"16618",179,9,1497602684859," 1"," Successor2","a","b"," 4830"
"16619",179,10,1497602696877," 1"," Successor2","b","d"," 10466"
"16627",599,8,1497602552971," 4"," Identity1","a","a"," 5561"
"16628",599,9,1497602555832," 4"," Identity1","b","b"," 2239"
"16642",442,8,1497602798084," 2"," Constant1","a","b"," 22498"
"16643",442,9,1497602807932," 2"," Constant1","b","d"," 6476"
"16651",400,8,1497604155386," 3"," Constant2","b","b"," 10904"
"16652",400,9,1497604164248," 3"," Constant2","d","c"," 6743"
"16653",400,10,1497604172121," 3"," Constant2","c","a"," 6009"
"16654",400,11,1497604176609," 3"," Constant2","a","c"," 2944"
"16662",73,8,1497604423517," 4"," Identity1","a","a"," 3922"
"16663",73,9,1497604429412," 4"," Identity1","b","b"," 4319"
"16671",499,8,1497605914461," 0"," Successor1","b","c"," 12068"
"16672",499,9,1497605923756," 0"," Successor1","a","b"," 7213"
"16680",505,8,1497608050705," 2"," Constant1","a","c"," 2984"
"16681",505,9,1497608057090," 2"," Constant1","b","d"," 5231"
"16689",506,8,1497608362988," 1"," Successor2","c","d"," 9898"
"16690",506,9,1497608384064," 1"," Successor2","a","b"," 17068"
"16691",506,10,1497608390587," 1"," Successor2","b","c"," 4671"
"16699",262,8,1497608995425," 3"," Constant2","b","c"," 8827"
"16700",262,9,1497609009006," 3"," Constant2","d","c"," 11505"
"16701",262,10,1497609014669," 3"," Constant2","a","c"," 4640"
"16702",262,11,1497609020037," 3"," Constant2","c","e"," 4485"
"16710",120,8,1497609798197," 0"," Successor1","a","b"," 10232"
"16711",120,9,1497609806752," 0"," Successor1","b","c"," 6831"
"16719",285,8,1497610597037," 4"," Identity1","b","b"," 11410"
"16720",285,9,1497610603364," 4"," Identity1","a","a"," 5051"
"16729",642,8,1497611216931," 1"," Successor2","a","b"," 18602"
"16730",642,9,1497611226176," 1"," Successor2","b","d"," 6892"
"16731",642,10,1497611243879," 1"," Successor2","c","d"," 15603"
"16739",154,8,1497611585432," 2"," Constant1","a","d"," 19859"
"16740",154,9,1497611600560," 2"," Constant1","b","a"," 13772"
"16748",494,8,1497611782985," 0"," Successor1","b","c"," 5609"
"16749",494,9,1497611789160," 0"," Successor1","a","b"," 4238"
"16757",67,8,1497612236852," 3"," Constant2","a","e"," 8898"
"16758",67,9,1497612248739," 3"," Constant2","d","b"," 10047"
"16759",67,10,1497612270265," 3"," Constant2","c","e"," 19882"
"16760",67,11,1497612275045," 3"," Constant2","b","c"," 3574"
"16768",577,8,1497612476662," 4"," Identity1","b","c"," 14606"
"16769",577,9,1497612489779," 4"," Identity1","a","a"," 10472"
"16777",471,8,1497613403402," 0"," Successor1","a","b"," 2303"
"16778",471,9,1497613409450," 0"," Successor1","b","c"," 3264"
"16792",533,8,1497614215725," 1"," Successor2","b","c"," 6903"
"16793",533,9,1497614220877," 1"," Successor2","a","b"," 3301"
"16794",533,10,1497614225101," 1"," Successor2","c","d"," 2537"
"16802",103,8,1497614645362," 3"," Constant2","c","d"," 6391"
"16803",103,9,1497614655065," 3"," Constant2","b","c"," 8999"
"16804",103,10,1497614840664," 3"," Constant2","a","c"," 184639"
"16805",103,11,1497614843731," 3"," Constant2","d","c"," 2002"
"16815",536,8,1497616006383," 2"," Constant1","a","c"," 8985"
"16816",536,9,1497616021404," 2"," Constant1","b","d"," 13598"
"16824",490,8,1497616034413," 3"," Constant2","a","c"," 11813"
"16825",490,9,1497616049544," 3"," Constant2","d","a"," 12419"
"16826",490,10,1497616062410," 3"," Constant2","c","a"," 10551"
"16827",490,11,1497616070101," 3"," Constant2","b","c"," 5321"
"16835",218,8,1497616683663," 4"," Identity1","a","a"," 3842"
"16836",218,9,1497616689699," 4"," Identity1","b","a"," 4961"
"16844",541,8,1497616850042," 1"," Successor2","b","c"," 12834"
"16845",541,9,1497616866724," 1"," Successor2","c","d"," 14299"
"16846",541,10,1497616870068," 1"," Successor2","a","b"," 2352"
"16854",138,8,1497617251332," 0"," Successor1","b","c"," 10646"
"16855",138,9,1497617261174," 0"," Successor1","a","b"," 7837"
"16863",601,8,1497617647581," 2"," Constant1","a","c"," 6149"
"16864",601,9,1497617662809," 2"," Constant1","b","a"," 13634"
"16872",467,8,1497617883477," 1"," Successor2","c","c"," 16039"
"16873",467,9,1497617908479," 1"," Successor2","a","b"," 5315"
"16874",467,10,1497617918799," 1"," Successor2","b","a"," 6710"
"16883",646,8,1497617853108," 3"," Constant2","b","c"," 10707"
"16884",646,9,1497617859269," 3"," Constant2","a","c"," 4013"
"16885",646,10,1497617868712," 3"," Constant2","d","e"," 7455"
"16886",646,11,1497617878361," 3"," Constant2","c","a"," 7890"
"16894",108,8,1497618059195," 0"," Successor1","a","b"," 9397"
"16895",108,9,1497618066433," 0"," Successor1","b","c"," 5865"
"16903",420,8,1497618301328," 4"," Identity1","b","a"," 19867"
"16904",420,9,1497618307172," 4"," Identity1","a","b"," 4613"
"16913",631,8,1497618217405," 2"," Constant1","a","b"," 4145"
"16914",631,9,1497618223332," 2"," Constant1","b","c"," 2472"
"16922",586,8,1497618719106," 2"," Constant1","b","d"," 6215"
"16923",586,9,1497618730325," 2"," Constant1","a","b"," 5998"
"16931",366,8,1497618983869," 0"," Successor1","a","b"," 6261"
"16932",366,9,1497618993745," 0"," Successor1","b","a"," 8466"
"16940",90,8,1497619384572," 3"," Constant2","b","a"," 17120"
"16941",90,9,1497619395744," 3"," Constant2","c","b"," 8752"
"16942",90,10,1497619402800," 3"," Constant2","d","e"," 3882"
"16943",90,11,1497619413282," 3"," Constant2","a","c"," 9604"
"16951",292,8,1497619107791," 1"," Successor2","c","d"," 3474"
"16952",292,9,1497619113558," 1"," Successor2","b","c"," 5047"
"16953",292,10,1497619116902," 1"," Successor2","a","b"," 2196"
"16961",404,8,1497619375160," 4"," Identity1","b","c"," 9360"
"16962",404,9,1497619382603," 4"," Identity1","a","a"," 4566"
"16970",495,8,1497619490366," 2"," Constant1","b","d"," 10566"
"16971",495,9,1497619496962," 2"," Constant1","a","c"," 5080"
"16978",416,8,1497619777763," 4"," Identity1","a","a"," 3649"
"16979",416,9,1497619781888," 4"," Identity1","b","b"," 2923"
"16987",514,8,1497620029553," 1"," Successor2","c","d"," 14545"
"16988",514,9,1497620040864," 1"," Successor2","a","b"," 9200"
"16989",514,10,1497620045343," 1"," Successor2","b","c"," 2263"
"16997",52,8,1497620281649," 0"," Successor1","b","c"," 5572"
"16998",52,9,1497620285650," 0"," Successor1","a","b"," 2819"
"17006",159,8,1497620416088," 3"," Constant2","c","e"," 7893"
"17007",159,9,1497620419451," 3"," Constant2","b","c"," 2668"
"17008",159,10,1497620422831," 3"," Constant2","d","a"," 2628"
"17009",159,11,1497620425357," 3"," Constant2","a","c"," 1244"
"17017",106,8,1497620213987," 2"," Constant1","a","b"," 7545"
"17018",106,9,1497620224689," 2"," Constant1","b","d"," 9028"
"17026",238,8,1497620660487," 3"," Constant2","a","c"," 8227"
"17027",238,9,1497620668614," 3"," Constant2","d","c"," 6202"
"17028",238,10,1497620675212," 3"," Constant2","c","d"," 5294"
"17029",238,11,1497620680478," 3"," Constant2","b","c"," 4507"
"17037",644,8,1497620888601," 0"," Successor1","a","b"," 2765"
"17038",644,9,1497620891276," 0"," Successor1","b","a"," 1982"
"17046",244,8,1497621173335," 1"," Successor2","a","b"," 13134"
"17047",244,9,1497621179045," 1"," Successor2","b","c"," 3314"
"17048",244,10,1497621200105," 1"," Successor2","c","d"," 17563"
"17056",147,8,1497621159010," 4"," Identity1","b","b"," 3863"
"17057",147,9,1497621166233," 4"," Identity1","a","a"," 5176"
"17065",214,8,1497621218193," 4"," Identity1","b","b"," 6094"
"17066",214,9,1497621222424," 4"," Identity1","a","a"," 2407"
"17074",635,8,1497621444540," 2"," Constant1","b","c"," 2031"
"17075",635,9,1497621446020," 2"," Constant1","a","a"," 932"
"17083",198,8,1497621704193," 0"," Successor1","b","c"," 11864"
"17084",198,9,1497621715542," 0"," Successor1","a","b"," 9213"
"17092",34,8,1497622367072," 2"," Constant1","b","d"," 5649"
"17093",34,9,1497622370887," 2"," Constant1","a","c"," 2836"
"17101",49,8,1497622504153," 3"," Constant2","d","a"," 7859"
"17102",49,9,1497622514809," 3"," Constant2","b","e"," 9922"
"17103",49,10,1497622519252," 3"," Constant2","c","e"," 3832"
"17104",49,11,1497622522400," 3"," Constant2","a","d"," 2418"
"17112",32,8,1497623958043," 1"," Successor2","b","d"," 7599"
"17113",32,9,1497623968501," 1"," Successor2","a","d"," 9333"
"17114",32,10,1497623980034," 1"," Successor2","c","d"," 10866"
"17122",156,8,1497648924451," 1"," Successor2","c","c"," 12719"
"17123",156,9,1497648931996," 1"," Successor2","b","c"," 5977"
"17124",156,10,1497648939284," 1"," Successor2","a","b"," 5977"
"17132",654,8,1497724255592," 5"," Identity2","c","c"," 3944"
"17133",654,9,1497724257988," 5"," Identity2","b","b"," 1548"
"17134",654,10,1497724260150," 5"," Identity2","a","a"," 1532"
"17142",609,8,1497724751742," 5"," Identity2","b","c"," 6769"
"17143",609,9,1497724754242," 5"," Identity2","a","d"," 1025"
"17144",609,10,1497724755681," 5"," Identity2","c","b"," 624"
"17158",380,8,1497724560139," 5"," Identity2","b","b"," 5741"
"17159",380,9,1497724563305," 5"," Identity2","a","a"," 2181"
"17160",380,10,1497724566954," 5"," Identity2","c","c"," 2813"
"17168",135,8,1497724592186," 5"," Identity2","c","c"," 4653"
"17169",135,9,1497724596512," 5"," Identity2","a","a"," 3227"
"17170",135,10,1497724598657," 5"," Identity2","b","b"," 1456"
"17178",5,8,1497724627385," 5"," Identity2","c","c"," 2165"
"17179",5,9,1497724632454," 5"," Identity2","a","a"," 3644"
"17180",5,10,1497724636142," 5"," Identity2","b","b"," 2415"
"17188",96,8,1497724675074," 5"," Identity2","a","a"," 11413"
"17189",96,9,1497724682258," 5"," Identity2","c","c"," 5136"
"17190",96,10,1497724686465," 5"," Identity2","b","b"," 2976"
"17198",8,8,1497724641092," 5"," Identity2","c","c"," 7036"
"17199",8,9,1497724646002," 5"," Identity2","b","b"," 3694"
"17200",8,10,1497724650003," 5"," Identity2","a","a"," 2283"
"17208",384,8,1497724798397," 5"," Identity2","a","a"," 5817"
"17209",384,9,1497724804568," 5"," Identity2","c","c"," 2467"
"17210",384,10,1497724807983," 5"," Identity2","b","b"," 2878"
"17218",462,8,1497724904280," 5"," Identity2","c","c"," 3576"
"17219",462,9,1497724912206," 5"," Identity2","b","b"," 3696"
"17220",462,10,1497724916867," 5"," Identity2","a","a"," 2634"
"17228",287,8,1497724997084," 5"," Identity2","b","b"," 3437"
"17229",287,9,1497725003836," 5"," Identity2","a","a"," 3616"
"17230",287,10,1497725010435," 5"," Identity2","c","d"," 4121"
"17238",415,8,1497725099455," 5"," Identity2","a","a"," 10683"
"17239",415,9,1497725105366," 5"," Identity2","b","b"," 3653"
"17240",415,10,1497725114885," 5"," Identity2","c","c"," 7484"
"17248",118,8,1497725077823," 5"," Identity2","c","c"," 4042"
"17249",118,9,1497725087139," 5"," Identity2","b","b"," 7099"
"17250",118,10,1497725093239," 5"," Identity2","a","a"," 4142"
"17258",321,8,1497725045938," 5"," Identity2","c","c"," 2521"
"17259",321,9,1497725050617," 5"," Identity2","b","b"," 3362"
"17260",321,10,1497725053531," 5"," Identity2","a","a"," 1818"
"17268",582,8,1497725167354," 5"," Identity2","a","a"," 9400"
"17269",582,9,1497725173852," 5"," Identity2","c","c"," 5160"
"17270",582,10,1497725180636," 5"," Identity2","b","b"," 4872"
"17278",127,8,1497725358850," 5"," Identity2","c","c"," 4096"
"17279",127,9,1497725361218," 5"," Identity2","b","b"," 1752"
"17280",127,10,1497725364178," 5"," Identity2","a","a"," 2432"
"17288",12,8,1497725140645," 5"," Identity2","c","c"," 3762"
"17289",12,9,1497725145850," 5"," Identity2","a","a"," 2851"
"17290",12,10,1497725148571," 5"," Identity2","b","b"," 1651"
"17298",51,8,1497725213844," 5"," Identity2","c","c"," 3419"
"17299",51,9,1497725223296," 5"," Identity2","a","a"," 7907"
"17300",51,10,1497725226453," 5"," Identity2","b","b"," 2228"
"17308",72,8,1497725239098," 5"," Identity2","b","b"," 8472"
"17309",72,9,1497725243605," 5"," Identity2","a","a"," 2707"
"17310",72,10,1497725249445," 5"," Identity2","c","c"," 4462"
"17318",629,8,1497725288214," 5"," Identity2","b","b"," 8475"
"17319",629,9,1497725295737," 5"," Identity2","c","c"," 5623"
"17320",629,10,1497725304903," 5"," Identity2","a","a"," 7279"
"17328",575,8,1497725284528," 5"," Identity2","b","b"," 9074"
"17329",575,9,1497725295694," 5"," Identity2","c","c"," 4753"
"17330",575,10,1497725306320," 5"," Identity2","a","a"," 8446"
"17338",338,8,1497725333132," 5"," Identity2","a","a"," 6113"
"17339",338,9,1497725338070," 5"," Identity2","b","b"," 2911"
"17340",338,10,1497725341865," 5"," Identity2","c","c"," 2900"
"17348",55,8,1497726243744," 5"," Identity2","a","a"," 14813"
"17349",55,9,1497726246703," 5"," Identity2","c","c"," 2402"
"17350",55,10,1497726248663," 5"," Identity2","b","b"," 1450"
"17358",104,8,1497725455962," 5"," Identity2","a","a"," 10655"
"17359",104,9,1497725461229," 5"," Identity2","b","b"," 2747"
"17360",104,10,1497725464432," 5"," Identity2","c","c"," 2076"
"17368",9,8,1497725494239," 5"," Identity2","a","a"," 8237"
"17369",9,9,1497725498990," 5"," Identity2","b","b"," 3264"
"17370",9,10,1497725503602," 5"," Identity2","c","c"," 3476"
"17378",451,8,1497725436882," 5"," Identity2","a","d"," 11103"
"17379",451,9,1497725445172," 5"," Identity2","c","a"," 7399"
"17380",451,10,1497725450483," 5"," Identity2","b","c"," 4594"
"17388",323,8,1497725416058," 5"," Identity2","a","a"," 5492"
"17389",323,9,1497725419876," 5"," Identity2","c","c"," 2031"
"17390",323,10,1497725422857," 5"," Identity2","b","b"," 1790"
"17398",114,8,1497725501032," 5"," Identity2","b","b"," 15263"
"17399",114,9,1497725506486," 5"," Identity2","c","c"," 3975"
"17400",114,10,1497725508968," 5"," Identity2","a","a"," 1697"
"17408",44,8,1497725513078," 5"," Identity2","b","b"," 5049"
"17409",44,9,1497725517110," 5"," Identity2","a","a"," 2988"
"17410",44,10,1497725520233," 5"," Identity2","c","c"," 2098"
"17418",259,8,1497725555584," 5"," Identity2","b","c"," 11680"
"17419",259,9,1497725560967," 5"," Identity2","a","d"," 3755"
"17420",259,10,1497725567215," 5"," Identity2","c","c"," 4758"
"17434",355,8,1497725625618," 5"," Identity2","a","a"," 5095"
"17435",355,9,1497725629431," 5"," Identity2","b","b"," 2508"
"17436",355,10,1497725634493," 5"," Identity2","c","c"," 4054"
"17444",581,8,1497725574901," 5"," Identity2","a","a"," 3781"
"17445",581,9,1497725578894," 5"," Identity2","c","c"," 2802"
"17446",581,10,1497725582278," 5"," Identity2","b","b"," 2281"
"17454",438,8,1497725760734," 5"," Identity2","c","c"," 3777"
"17455",438,9,1497725766146," 5"," Identity2","b","b"," 4243"
"17456",438,10,1497725769618," 5"," Identity2","a","a"," 1948"
"17464",253,8,1497725591698," 5"," Identity2","b","b"," 4899"
"17465",253,9,1497725598472," 5"," Identity2","c","c"," 5257"
"17466",253,10,1497725602806," 5"," Identity2","a","a"," 2520"
"17474",372,8,1497725626589," 5"," Identity2","c","c"," 3534"
"17475",372,9,1497725631924," 5"," Identity2","a","a"," 2651"
"17476",372,10,1497725635256," 5"," Identity2","b","b"," 1624"
"17484",587,8,1497725599255," 5"," Identity2","c","c"," 4444"
"17485",587,9,1497725602771," 5"," Identity2","b","b"," 1912"
"17486",587,10,1497725605653," 5"," Identity2","a","a"," 2041"
"17494",109,8,1497725669698," 5"," Identity2","b","b"," 4021"
"17495",109,9,1497725674191," 5"," Identity2","a","a"," 2849"
"17496",109,10,1497725680893," 5"," Identity2","c","c"," 5134"
"17504",385,8,1497725730039," 5"," Identity2","c","c"," 13490"
"17505",385,9,1497725737125," 5"," Identity2","a","a"," 4885"
"17506",385,10,1497725742049," 5"," Identity2","b","b"," 3218"
"17514",33,8,1497725756169," 5"," Identity2","c","c"," 9108"
"17515",33,9,1497725763885," 5"," Identity2","b","b"," 4332"
"17516",33,10,1497725767579," 5"," Identity2","a","a"," 2193"
"17524",334,8,1497725826725," 5"," Identity2","b","b"," 27982"
"17525",334,9,1497725832612," 5"," Identity2","c","c"," 4855"
"17526",334,10,1497725850981," 5"," Identity2","a","a"," 16512"
"17534",330,8,1497725761685," 5"," Identity2","a","a"," 9865"
"17535",330,9,1497725768358," 5"," Identity2","b","b"," 5100"
"17536",330,10,1497725774056," 5"," Identity2","c","c"," 4060"
"17544",22,8,1497725851101," 5"," Identity2","b","b"," 3395"
"17545",22,9,1497725856567," 5"," Identity2","c","c"," 4013"
"17546",22,10,1497725862103," 5"," Identity2","a","a"," 3925"
"17554",613,8,1497725861768," 5"," Identity2","b","b"," 11867"
"17555",613,9,1497725867586," 5"," Identity2","c","c"," 4480"
"17556",613,10,1497725876175," 5"," Identity2","a","a"," 7574"
"17564",513,8,1497725844831," 5"," Identity2","c","c"," 4894"
"17565",513,9,1497725854659," 5"," Identity2","a","a"," 6531"
"17566",513,10,1497725862521," 5"," Identity2","b","b"," 4644"
"17574",41,8,1497725908070," 5"," Identity2","c","c"," 5714"
"17575",41,9,1497725913571," 5"," Identity2","a","a"," 4114"
"17576",41,10,1497725919257," 5"," Identity2","b","b"," 4787"
"17584",102,8,1497725827253," 5"," Identity2","b","b"," 5344"
"17585",102,9,1497725832466," 5"," Identity2","a","a"," 1731"
"17586",102,10,1497725836434," 5"," Identity2","c","d"," 3250"
"17594",331,8,1497725855135," 5"," Identity2","b","d"," 11983"
"17595",331,9,1497725862066," 5"," Identity2","a","d"," 4312"
"17596",331,10,1497725868308," 5"," Identity2","c","b"," 5160"
"17604",432,8,1497726254364," 5"," Identity2","b","a"," 29966"
"17605",432,9,1497726260778," 5"," Identity2","a","c"," 4453"
"17606",432,10,1497726264630," 5"," Identity2","c","c"," 3292"
"17614",409,8,1497729944955," 5"," Identity2","b","b"," 11236"
"17615",409,9,1497729951530," 5"," Identity2","a","a"," 4958"
"17616",409,10,1497729956536," 5"," Identity2","c","c"," 3752"
"17624",423,8,1497725951596," 5"," Identity2","a","a"," 6572"
"17625",423,9,1497725955427," 5"," Identity2","c","c"," 2696"
"17626",423,10,1497725957503," 5"," Identity2","b","b"," 1571"
"17634",519,8,1497726147711," 5"," Identity2","c","c"," 5454"
"17635",519,9,1497726151897," 5"," Identity2","a","a"," 3021"
"17636",519,10,1497726154777," 5"," Identity2","b","b"," 2255"
"17644",517,8,1497725954580," 5"," Identity2","c","c"," 4746"
"17645",517,9,1497725966071," 5"," Identity2","b","b"," 10419"
"17646",517,10,1497725972651," 5"," Identity2","a","a"," 2622"
"17654",522,8,1497726079047," 5"," Identity2","c","d"," 9682"
"17655",522,9,1497726086671," 5"," Identity2","a","a"," 6142"
"17656",522,10,1497726092393," 5"," Identity2","b","b"," 4929"
"17664",319,8,1497726043005," 5"," Identity2","a","a"," 3885"
"17665",319,9,1497726050148," 5"," Identity2","c","c"," 4264"
"17666",319,10,1497726053951," 5"," Identity2","b","b"," 2320"
"17674",414,8,1497726097484," 5"," Identity2","a","d"," 6543"
"17675",414,9,1497726107562," 5"," Identity2","b","b"," 7181"
"17676",414,10,1497726116482," 5"," Identity2","c","a"," 7478"
"17684",315,8,1497726271822," 5"," Identity2","b","c"," 13344"
"17685",315,9,1497726276884," 5"," Identity2","a","c"," 3912"
"17686",315,10,1497726289559," 5"," Identity2","c","c"," 9517"
"17694",215,8,1497726171556," 5"," Identity2","c","c"," 17687"
"17695",215,9,1497726202696," 5"," Identity2","b","c"," 29993"
"17696",215,10,1497726206765," 5"," Identity2","a","a"," 3025"
"17704",282,8,1497726126902," 5"," Identity2","a","a"," 4158"
"17705",282,9,1497726130666," 5"," Identity2","c","c"," 2430"
"17706",282,10,1497726134764," 5"," Identity2","b","b"," 3411"
"17714",369,8,1497726288382," 5"," Identity2","a","a"," 5138"
"17715",369,9,1497726293614," 5"," Identity2","b","b"," 2926"
"17716",369,10,1497726300734," 5"," Identity2","c","d"," 4871"
"17724",171,8,1497726228397," 5"," Identity2","c","c"," 11128"
"17725",171,9,1497726235704," 5"," Identity2","b","b"," 5756"
"17726",171,10,1497726242082," 5"," Identity2","a","a"," 5555"
"17734",145,8,1497726738605," 5"," Identity2","c","c"," 7266"
"17735",145,9,1497726756122," 5"," Identity2","a","a"," 13492"
"17736",145,10,1497726774474," 5"," Identity2","b","b"," 7467"
"17744",591,8,1497726311493," 5"," Identity2","a","a"," 4673"
"17745",591,9,1497726318701," 5"," Identity2","c","a"," 5538"
"17746",591,10,1497726324424," 5"," Identity2","b","b"," 3295"
"17754",94,8,1497726322304," 5"," Identity2","b","b"," 4895"
"17755",94,9,1497726326947," 5"," Identity2","a","a"," 3189"
"17756",94,10,1497726330019," 5"," Identity2","c","c"," 2304"
"17764",284,8,1497726326486," 5"," Identity2","b","b"," 3803"
"17765",284,9,1497726331001," 5"," Identity2","a","a"," 2612"
"17766",284,10,1497726336203," 5"," Identity2","c","c"," 3767"
"17774",598,8,1497726394586," 5"," Identity2","c","c"," 4860"
"17775",598,9,1497726402458," 5"," Identity2","b","b"," 6936"
"17776",598,10,1497726405543," 5"," Identity2","a","a"," 1953"
"17784",132,8,1497726461311," 5"," Identity2","c","c"," 4629"
"17785",132,9,1497726468103," 5"," Identity2","b","b"," 4002"
"17786",132,10,1497726473678," 5"," Identity2","a","a"," 3237"
"17794",188,8,1497726378464," 5"," Identity2","c","c"," 4398"
"17795",188,9,1497726384651," 5"," Identity2","a","a"," 2547"
"17796",188,10,1497726388148," 5"," Identity2","b","b"," 2812"
"17804",383,8,1497726434632," 5"," Identity2","c","c"," 5643"
"17805",383,9,1497726438299," 5"," Identity2","a","a"," 2803"
"17806",383,10,1497726441015," 5"," Identity2","b","b"," 1408"
"17814",402,8,1497726428573," 5"," Identity2","c","c"," 3895"
"17815",402,9,1497726433036," 5"," Identity2","b","b"," 3369"
"17816",402,10,1497726434561," 5"," Identity2","a","a"," 1022"
"17824",42,8,1497726463111," 5"," Identity2","a","a"," 4382"
"17825",42,9,1497726466360," 5"," Identity2","b","b"," 2167"
"17826",42,10,1497726468667," 5"," Identity2","c","c"," 1447"
"17834",572,8,1497726469986," 5"," Identity2","a","a"," 8759"
"17835",572,9,1497726474513," 5"," Identity2","c","a"," 3445"
"17836",572,10,1497726483421," 5"," Identity2","b","b"," 3671"
"17844",560,8,1497726839510," 5"," Identity2","a","a"," 4761"
"17845",560,9,1497726843541," 5"," Identity2","b","b"," 2369"
"17846",560,10,1497726847815," 5"," Identity2","c","c"," 2506"
"17854",288,8,1497726775615," 5"," Identity2","b","b"," 13773"
"17855",288,9,1497726778614," 5"," Identity2","a","a"," 2091"
"17856",288,10,1497726781108," 5"," Identity2","c","c"," 1900"
"17864",364,8,1497726859538," 5"," Identity2","a","c"," 8573"
"17865",364,9,1497726863032," 5"," Identity2","b","b"," 2404"
"17866",364,10,1497726865504," 5"," Identity2","c","c"," 1446"
"17874",302,8,1497727361476," 5"," Identity2","b","b"," 10736"
"17875",302,9,1497727368186," 5"," Identity2","c","c"," 3291"
"17876",302,10,1497727374875," 5"," Identity2","a","a"," 3233"
"17884",54,8,1497727342924," 5"," Identity2","a","a"," 3019"
"17885",54,9,1497727347712," 5"," Identity2","c","c"," 3166"
"17886",54,10,1497727350859," 5"," Identity2","b","b"," 2247"
"17894",652,8,1497728412836," 6"," Symmetry1","b","a"," 4925"
"17895",652,9,1497728415276," 6"," Symmetry1","a","b"," 1622"
"17902",653,8,1497728594356," 6"," Symmetry1","b","a"," 3529"
"17903",653,9,1497728598241," 6"," Symmetry1","a","b"," 3235"
"17910",153,8,1497728848143," 6"," Symmetry1","a","b"," 12776"
"17911",153,9,1497728858976," 6"," Symmetry1","b","c"," 9189"
"17919",28,8,1497728864098," 6"," Symmetry1","b","c"," 5285"
"17920",28,9,1497728875054," 6"," Symmetry1","a","b"," 5112"
"17928",412,8,1497728806402," 6"," Symmetry1","b","a"," 8785"
"17929",412,9,1497728812682," 6"," Symmetry1","a","b"," 4852"
"17937",576,8,1497728827878," 6"," Symmetry1","a","b"," 12826"
"17938",576,9,1497728833856," 6"," Symmetry1","b","c"," 4505"
"17946",100,8,1497728966521," 6"," Symmetry1","a","b"," 4561"
"17947",100,9,1497728972127," 6"," Symmetry1","b","c"," 4663"
"17955",386,8,1497729013490," 6"," Symmetry1","b","a"," 4536"
"17956",386,9,1497729019474," 6"," Symmetry1","a","b"," 4644"
"17964",245,8,1497729022659," 6"," Symmetry1","a","b"," 6186"
"17965",245,9,1497729033205," 6"," Symmetry1","b","a"," 7967"
"17973",427,8,1497729020804," 6"," Symmetry1","a","b"," 2616"
"17974",427,9,1497729028867," 6"," Symmetry1","b","a"," 2914"
"17982",483,8,1497729046501," 6"," Symmetry1","a","b"," 4751"
"17983",483,9,1497729057008," 6"," Symmetry1","b","c"," 5930"
"17991",201,8,1497729139017," 6"," Symmetry1","b","c"," 12015"
"17992",201,9,1497729146713," 6"," Symmetry1","a","c"," 5730"
"18000",431,8,1497729168170," 6"," Symmetry1","a","b"," 63930"
"18001",431,9,1497729178183," 6"," Symmetry1","b","c"," 7664"
"18009",446,8,1497729776089," 6"," Symmetry1","b","c"," 12765"
"18010",446,9,1497729786798," 6"," Symmetry1","a","b"," 7687"
"18018",27,8,1497729036092," 6"," Symmetry1","a","c"," 5498"
"18019",27,9,1497729054774," 6"," Symmetry1","b","a"," 9816"
"18027",542,8,1497729030934," 6"," Symmetry1","a","b"," 4155"
"18028",542,9,1497729038655," 6"," Symmetry1","b","c"," 4675"
"18036",134,8,1497729251032," 6"," Symmetry1","b","c"," 14426"
"18037",134,9,1497729260716," 6"," Symmetry1","a","c"," 7713"
"18045",257,8,1497729301379," 6"," Symmetry1","b","c"," 6671"
"18046",257,9,1497729311207," 6"," Symmetry1","a","b"," 7756"
"18054",230,8,1497729191542," 6"," Symmetry1","b","c"," 3649"
"18055",230,9,1497729195228," 6"," Symmetry1","a","b"," 2924"
"18063",565,8,1497729328318," 6"," Symmetry1","a","b"," 7680"
"18064",565,9,1497729341213," 6"," Symmetry1","b","c"," 11246"
"18072",625,8,1497729295413," 6"," Symmetry1","b","a"," 12332"
"18073",625,9,1497729302863," 6"," Symmetry1","a","b"," 6027"
"18081",180,8,1497729387776," 6"," Symmetry1","b","c"," 5040"
"18082",180,9,1497729394357," 6"," Symmetry1","a","b"," 4097"
"18090",608,8,1497729438935," 6"," Symmetry1","b","c"," 5051"
"18091",608,9,1497729449174," 6"," Symmetry1","a","b"," 9543"
"18099",465,8,1497729705370," 6"," Symmetry1","b","a"," 6906"
"18100",465,9,1497729709381," 6"," Symmetry1","a","b"," 2621"
"18108",176,8,1497729584939," 6"," Symmetry1","b","a"," 4473"
"18109",176,9,1497729589668," 6"," Symmetry1","a","b"," 3601"
"18117",263,8,1497729602459," 6"," Symmetry1","a","b"," 2334"
"18118",263,9,1497729605864," 6"," Symmetry1","b","a"," 2011"
"18126",502,8,1497729804835," 6"," Symmetry1","a","b"," 8449"
"18127",502,9,1497729828968," 6"," Symmetry1","b","c"," 21710"
"18135",570,8,1497729661129," 6"," Symmetry1","a","b"," 4027"
"18136",570,9,1497729666383," 6"," Symmetry1","b","c"," 3906"
"18144",56,8,1497729719048," 6"," Symmetry1","a","b"," 3059"
"18145",56,9,1497729747715," 6"," Symmetry1","b","c"," 21220"
"18153",524,8,1497730049948," 6"," Symmetry1","b","b"," 132502"
"18154",524,9,1497730053397," 6"," Symmetry1","a","c"," 1766"
"18162",23,8,1497729740293," 6"," Symmetry1","b","c"," 3472"
"18163",23,9,1497729743754," 6"," Symmetry1","a","b"," 2265"
"18172",85,8,1497729849224," 6"," Symmetry1","a","c"," 17606"
"18173",85,9,1497729868527," 6"," Symmetry1","b","c"," 16976"
"18181",16,8,1497729913652," 6"," Symmetry1","a","b"," 9477"
"18182",16,9,1497729924025," 6"," Symmetry1","b","c"," 7746"
"18190",60,8,1497729979525," 6"," Symmetry1","b","a"," 154944"
"18191",60,9,1497729984596," 6"," Symmetry1","a","b"," 3485"
"18199",87,8,1497729904472," 6"," Symmetry1","a","b"," 4561"
"18200",87,9,1497729923098," 6"," Symmetry1","b","c"," 15630"
"18208",525,8,1497730081681," 6"," Symmetry1","b","c"," 7109"
"18209",525,9,1497730095574," 6"," Symmetry1","a","b"," 10209"
"18217",367,8,1497730249557," 6"," Symmetry1","a","b"," 12529"
"18218",367,9,1497730260833," 6"," Symmetry1","b","a"," 8216"
"18226",279,8,1497730238040," 6"," Symmetry1","b","a"," 12928"
"18227",279,9,1497730245836," 6"," Symmetry1","a","b"," 3965"
"18235",454,8,1497730351694," 6"," Symmetry1","a","b"," 7438"
"18236",454,9,1497730361798," 6"," Symmetry1","b","c"," 8304"
"18250",425,8,1497730302586," 6"," Symmetry1","b","c"," 9344"
"18251",425,9,1497730310256," 6"," Symmetry1","a","b"," 5869"
"18259",298,8,1497730417125," 6"," Symmetry1","b","c"," 14179"
"18260",298,9,1497730429711," 6"," Symmetry1","a","b"," 11012"
"18267",476,8,1497730419794," 6"," Symmetry1","a","b"," 7191"
"18268",476,9,1497730429807," 6"," Symmetry1","b","a"," 8647"
"18276",209,8,1497730475055," 6"," Symmetry1","a","b"," 7704"
"18277",209,9,1497730482645," 6"," Symmetry1","b","c"," 6071"
"18285",15,8,1497730423808," 6"," Symmetry1","b","b"," 7588"
"18286",15,9,1497730430496," 6"," Symmetry1","a","b"," 5752"
"18294",552,8,1497730783326," 6"," Symmetry1","a","b"," 5552"
"18295",552,9,1497730790174," 6"," Symmetry1","b","c"," 5680"
"18303",260,8,1497730470848," 6"," Symmetry1","a","c"," 5240"
"18304",260,9,1497730481573," 6"," Symmetry1","b","c"," 7098"
"18312",258,8,1497730782002," 6"," Symmetry1","b","a"," 6645"
"18313",258,9,1497730788643," 6"," Symmetry1","a","b"," 4726"
"18321",217,8,1497730755283," 6"," Symmetry1","a","c"," 6376"
"18322",217,9,1497730784428," 6"," Symmetry1","b","a"," 27541"
"18330",556,8,1497730791784," 6"," Symmetry1","a","b"," 4406"
"18331",556,9,1497730797414," 6"," Symmetry1","b","a"," 3673"
"18339",225,8,1497730838553," 6"," Symmetry1","b","c"," 5621"
"18340",225,9,1497730845150," 6"," Symmetry1","a","b"," 4266"
"18348",233,8,1497730802568," 6"," Symmetry1","a","b"," 10282"
"18349",233,9,1497730809447," 6"," Symmetry1","b","c"," 5630"
"18357",488,8,1497730848570," 6"," Symmetry1","b","c"," 3499"
"18358",488,9,1497730859303," 6"," Symmetry1","a","c"," 9418"
"18365",392,8,1497730844640," 6"," Symmetry1","a","b"," 7805"
"18366",392,9,1497730855439," 6"," Symmetry1","b","c"," 8280"
"18374",212,8,1497730906667," 6"," Symmetry1","a","b"," 8033"
"18375",212,9,1497730913745," 6"," Symmetry1","b","c"," 4273"
"18384",75,8,1497731113413," 6"," Symmetry1","b","a"," 21988"
"18385",75,9,1497731121157," 6"," Symmetry1","a","b"," 4487"
"18393",151,8,1497731302363," 6"," Symmetry1","b","c"," 2318"
"18394",151,9,1497731306083," 6"," Symmetry1","a","b"," 2934"
"18402",549,8,1497731375762," 6"," Symmetry1","a","b"," 2487"
"18403",549,9,1497731380313," 6"," Symmetry1","b","a"," 2742"
"18411",53,8,1497731508373," 6"," Symmetry1","b","a"," 15744"
"18412",53,9,1497731521461," 6"," Symmetry1","a","b"," 11434"
"18420",121,8,1497731645764," 6"," Symmetry1","b","c"," 8067"
"18421",121,9,1497731655305," 6"," Symmetry1","a","b"," 3701"
"18429",464,8,1497731705517," 6"," Symmetry1","b","c"," 16773"
"18430",464,9,1497731726543," 6"," Symmetry1","a","b"," 11261"
"18438",596,8,1497731579084," 6"," Symmetry1","a","b"," 13449"
"18439",596,9,1497731584731," 6"," Symmetry1","b","b"," 4632"
"18447",437,8,1497742459264," 6"," Symmetry1","a","b"," 8258"
"18448",437,9,1497742470960," 6"," Symmetry1","b","b"," 8573"
"18456",168,8,1497731802045," 6"," Symmetry1","b","c"," 5365"
"18457",168,9,1497731807165," 6"," Symmetry1","a","b"," 3387"
"18465",489,8,1497731718575," 6"," Symmetry1","a","b"," 6551"
"18466",489,9,1497731726049," 6"," Symmetry1","b","c"," 5498"
"18474",365,8,1497731995119," 6"," Symmetry1","a","b"," 7015"
"18475",365,9,1497732001085," 6"," Symmetry1","b","a"," 3190"
"18483",436,8,1497732150047," 6"," Symmetry1","b","c"," 6231"
"18484",436,9,1497732160953," 6"," Symmetry1","a","b"," 8960"
"18492",619,8,1497732192170," 6"," Symmetry1","a","c"," 6783"
"18493",619,9,1497732202153," 6"," Symmetry1","b","c"," 7309"
"18501",236,8,1497732306796," 6"," Symmetry1","a","a"," 4872"
"18502",236,9,1497732310328," 6"," Symmetry1","b","b"," 2159"
"18510",13,8,1497732316966," 6"," Symmetry1","a","b"," 7368"
"18511",13,9,1497732325542," 6"," Symmetry1","b","a"," 6704"
"18519",520,8,1497732448189," 6"," Symmetry1","a","b"," 6901"
"18520",520,9,1497732453403," 6"," Symmetry1","b","c"," 2603"
"18528",336,8,1497732568754," 6"," Symmetry1","b","c"," 7489"
"18529",336,9,1497732576781," 6"," Symmetry1","a","b"," 5974"
"18537",252,8,1497732618205," 6"," Symmetry1","a","b"," 8777"
"18538",252,9,1497732623676," 6"," Symmetry1","b","c"," 4364"
"18546",97,8,1497743503382," 6"," Symmetry1","b","c"," 14043"
"18547",97,9,1497743515491," 6"," Symmetry1","a","c"," 10109"
"18554",649,8,1497732801681," 6"," Symmetry1","b","c"," 6657"
"18555",649,9,1497732810929," 6"," Symmetry1","a","b"," 6480"
"18563",219,8,1497732683669," 6"," Symmetry1","a","b"," 7309"
"18564",219,9,1497732693127," 6"," Symmetry1","b","c"," 8047"
"18572",362,8,1497732757304," 6"," Symmetry1","a","b"," 7645"
"18573",362,9,1497732767971," 6"," Symmetry1","b","c"," 7243"
"18581",397,8,1497732794439," 6"," Symmetry1","a","b"," 14671"
"18582",397,9,1497732822001," 6"," Symmetry1","b","c"," 16995"
"18590",210,8,1497732801091," 6"," Symmetry1","a","b"," 4639"
"18591",210,9,1497732805341," 6"," Symmetry1","b","c"," 3529"
"18599",461,8,1497733151321," 6"," Symmetry1","a","b"," 4273"
"18600",461,9,1497733167222," 6"," Symmetry1","b","a"," 8234"
"18608",280,8,1497733209308," 6"," Symmetry1","b","c"," 10103"
"18609",280,9,1497733215127," 6"," Symmetry1","a","b"," 4125"
"18618",399,8,1497733261014," 6"," Symmetry1","b","a"," 10222"
"18619",399,9,1497733267590," 6"," Symmetry1","a","b"," 4879"
"18627",93,8,1497733399118," 6"," Symmetry1","b","c"," 2794"
"18628",93,9,1497733406444," 6"," Symmetry1","a","b"," 5305"
"18636",602,8,1497733505977," 6"," Symmetry1","b","a"," 7693"
"18637",602,9,1497733513447," 6"," Symmetry1","a","b"," 3232"
"18645",403,8,1497733387850," 6"," Symmetry1","b","c"," 8750"
"18646",403,9,1497733394605," 6"," Symmetry1","a","c"," 5389"
"18654",638,8,1497733656552," 6"," Symmetry1","b","a"," 5468"
"18655",638,9,1497733662765," 6"," Symmetry1","a","b"," 4008"
"18663",515,8,1497733710932," 6"," Symmetry1","b","c"," 7060"
"18664",515,9,1497733722928," 6"," Symmetry1","a","b"," 6783"
"18672",655,8,1497880550027," 7"," Symmetry2","c","d"," 5559"
"18673",655,9,1497880552652," 7"," Symmetry2","a","b"," 1805"
"18674",655,10,1497880554614," 7"," Symmetry2","b","a"," 1428"
"18681",178,8,1497880886781," 7"," Symmetry2","c","d"," 22350"
"18682",178,9,1497880896177," 7"," Symmetry2","b","a"," 7459"
"18683",178,10,1497880901470," 7"," Symmetry2","a","b"," 4047"
"18691",618,8,1497880803335," 7"," Symmetry2","b","a"," 3571"
"18692",618,9,1497880808249," 7"," Symmetry2","a","b"," 2863"
"18693",618,10,1497880813705," 7"," Symmetry2","c","b"," 4765"
"18701",79,8,1497880836938," 7"," Symmetry2","c","d"," 7574"
"18702",79,9,1497880846922," 7"," Symmetry2","a","b"," 6966"
"18703",79,10,1497880852228," 7"," Symmetry2","b","a"," 3864"
"18711",360,8,1497880841168," 7"," Symmetry2","c","d"," 3118"
"18712",360,9,1497880845914," 7"," Symmetry2","a","b"," 2865"
"18713",360,10,1497880851177," 7"," Symmetry2","b","a"," 2231"
"18721",537,8,1497880911634," 7"," Symmetry2","b","a"," 8296"
"18722",537,9,1497880921720," 7"," Symmetry2","c","d"," 7951"
"18723",537,10,1497880928577," 7"," Symmetry2","a","b"," 5328"
"18731",398,8,1497880889779," 7"," Symmetry2","a","b"," 2883"
"18732",398,9,1497880894527," 7"," Symmetry2","c","d"," 3720"
"18733",398,10,1497880898498," 7"," Symmetry2","b","a"," 2750"
"18741",590,8,1497880924573," 7"," Symmetry2","c","a"," 13207"
"18742",590,9,1497880932620," 7"," Symmetry2","a","c"," 6829"
"18743",590,10,1497880938916," 7"," Symmetry2","b","a"," 3478"
"18751",281,8,1497880951953," 7"," Symmetry2","c","d"," 11530"
"18752",281,9,1497880958441," 7"," Symmetry2","a","b"," 4566"
"18753",281,10,1497880963747," 7"," Symmetry2","b","a"," 2950"
"18761",343,8,1497880993783," 7"," Symmetry2","b","a"," 7311"
"18762",343,9,1497880997519," 7"," Symmetry2","a","b"," 2534"
"18763",343,10,1497881003720," 7"," Symmetry2","c","d"," 5318"
"18771",65,8,1497881072173," 7"," Symmetry2","b","a"," 6791"
"18772",65,9,1497881077643," 7"," Symmetry2","c","d"," 3895"
"18773",65,10,1497881081050," 7"," Symmetry2","a","b"," 2247"
"18782",249,8,1497881057989," 7"," Symmetry2","b","a"," 4649"
"18783",249,9,1497881065779," 7"," Symmetry2","a","b"," 5223"
"18784",249,10,1497881069962," 7"," Symmetry2","c","d"," 3047"
"18792",19,8,1497880918372," 7"," Symmetry2","c","d"," 9917"
"18793",19,9,1497880923783," 7"," Symmetry2","a","b"," 3020"
"18794",19,10,1497880926855," 7"," Symmetry2","b","a"," 2260"
"18802",2,8,1497881108899," 7"," Symmetry2","b","a"," 7348"
"18803",2,9,1497881119051," 7"," Symmetry2","a","b"," 8469"
"18804",2,10,1497881128396," 7"," Symmetry2","c","a"," 7881"
"18812",375,8,1497881383580," 7"," Symmetry2","c","d"," 5477"
"18813",375,9,1497881390770," 7"," Symmetry2","a","b"," 2935"
"18814",375,10,1497881393300," 7"," Symmetry2","b","a"," 1809"
"18822",222,8,1497881064186," 7"," Symmetry2","b","a"," 6825"
"18823",222,9,1497881070047," 7"," Symmetry2","c","d"," 4717"
"18824",222,10,1497881074031," 7"," Symmetry2","a","b"," 3044"
"18832",261,8,1497881194047," 7"," Symmetry2","c","d"," 7525"
"18833",261,9,1497881204673," 7"," Symmetry2","b","a"," 8315"
"18834",261,10,1497881209086," 7"," Symmetry2","a","b"," 2936"
"18842",229,8,1497881153191," 7"," Symmetry2","c","d"," 6340"
"18843",229,9,1497881160065," 7"," Symmetry2","b","a"," 5758"
"18844",229,10,1497881165034," 7"," Symmetry2","a","b"," 2834"
"18852",440,8,1497881115679," 7"," Symmetry2","c","b"," 6498"
"18853",440,9,1497881122399," 7"," Symmetry2","a","b"," 4711"
"18854",440,10,1497881128616," 7"," Symmetry2","b","c"," 3587"
"18862",527,8,1497881152116," 7"," Symmetry2","b","a"," 7281"
"18863",527,9,1497881162771," 7"," Symmetry2","a","b"," 9378"
"18864",527,10,1497881172272," 7"," Symmetry2","c","c"," 8219"
"18872",98,8,1497881133381," 7"," Symmetry2","b","a"," 12467"
"18873",98,9,1497881139746," 7"," Symmetry2","c","b"," 4367"
"18874",98,10,1497881145228," 7"," Symmetry2","a","b"," 2498"
"18882",24,8,1497881130665," 7"," Symmetry2","b","a"," 3991"
"18883",24,9,1497881134137," 7"," Symmetry2","a","b"," 2440"
"18884",24,10,1497881136969," 7"," Symmetry2","c","d"," 2088"
"18892",74,8,1497881280251," 7"," Symmetry2","a","b"," 10138"
"18893",74,9,1497881287052," 7"," Symmetry2","b","a"," 4841"
"18894",74,10,1497881292117," 7"," Symmetry2","c","d"," 4115"
"18902",195,8,1497881188759," 7"," Symmetry2","b","a"," 7580"
"18903",195,9,1497881202712," 7"," Symmetry2","a","b"," 12866"
"18904",195,10,1497881215153," 7"," Symmetry2","c","d"," 9462"
"18912",455,8,1497881165793," 7"," Symmetry2","c","d"," 7977"
"18913",455,9,1497881172450," 7"," Symmetry2","a","b"," 4619"
"18914",455,10,1497881180249," 7"," Symmetry2","b","a"," 6311"
"18922",101,8,1497881127040," 7"," Symmetry2","c","d"," 5149"
"18923",101,9,1497881131401," 7"," Symmetry2","b","a"," 3587"
"18924",101,10,1497881135819," 7"," Symmetry2","a","b"," 3519"
"18932",325,8,1497881206819," 7"," Symmetry2","b","a"," 6561"
"18933",325,9,1497881212540," 7"," Symmetry2","c","d"," 4067"
"18934",325,10,1497881218692," 7"," Symmetry2","a","b"," 4939"
"18942",77,8,1497881120315," 7"," Symmetry2","a","d"," 5939"
"18943",77,9,1497881131351," 7"," Symmetry2","b","d"," 9851"
"18944",77,10,1497881140820," 7"," Symmetry2","c","d"," 7310"
"18952",25,8,1497881258997," 7"," Symmetry2","a","b"," 6158"
"18953",25,9,1497881262549," 7"," Symmetry2","b","a"," 2461"
"18954",25,10,1497881267148," 7"," Symmetry2","c","d"," 3341"
"18962",242,8,1497881287481," 7"," Symmetry2","b","a"," 10800"
"18963",242,9,1497881307743," 7"," Symmetry2","c","d"," 13583"
"18970",290,8,1497881238856," 7"," Symmetry2","b","a"," 3117"
"18971",290,9,1497881249306," 7"," Symmetry2","c","d"," 7852"
"18972",290,10,1497881254145," 7"," Symmetry2","a","b"," 3214"
"18980",107,8,1497881225112," 7"," Symmetry2","a","b"," 7559"
"18981",107,9,1497881227572," 7"," Symmetry2","b","b"," 1755"
"18982",107,10,1497881237292," 7"," Symmetry2","c","d"," 2041"
"18990",91,8,1497881262107," 7"," Symmetry2","a","b"," 8670"
"18991",91,9,1497881269024," 7"," Symmetry2","c","d"," 5308"
"18992",91,10,1497881273282," 7"," Symmetry2","b","a"," 2185"
"19000",92,8,1497881273080," 7"," Symmetry2","b","a"," 3304"
"19001",92,9,1497881279063," 7"," Symmetry2","c","d"," 4544"
"19002",92,10,1497881282303," 7"," Symmetry2","a","b"," 2296"
"19010",523,8,1497881246910," 7"," Symmetry2","b","b"," 3666"
"19011",523,9,1497881250302," 7"," Symmetry2","a","b"," 2288"
"19012",523,10,1497881253095," 7"," Symmetry2","c","d"," 2144"
"19020",211,8,1497881291763," 7"," Symmetry2","b","a"," 4163"
"19021",211,9,1497881298341," 7"," Symmetry2","a","b"," 4491"
"19022",211,10,1497881302498," 7"," Symmetry2","c","d"," 3055"
"19030",237,8,1497881335039," 7"," Symmetry2","b","a"," 7700"
"19031",237,9,1497881341170," 7"," Symmetry2","a","d"," 5384"
"19032",237,10,1497881346793," 7"," Symmetry2","c","d"," 4702"
"19040",354,8,1497888459339," 7"," Symmetry2","a","b"," 10280"
"19041",354,9,1497888466762," 7"," Symmetry2","c","d"," 6471"
"19042",354,10,1497888470497," 7"," Symmetry2","b","a"," 2919"
"19050",466,8,1497881426470," 7"," Symmetry2","b","a"," 2601"
"19051",466,9,1497881431566," 7"," Symmetry2","a","b"," 2963"
"19052",466,10,1497881437028," 7"," Symmetry2","c","d"," 4397"
"19060",294,8,1497881450332," 7"," Symmetry2","b","a"," 8289"
"19061",294,9,1497881462272," 7"," Symmetry2","c","c"," 11532"
"19062",294,10,1497881466030," 7"," Symmetry2","a","b"," 3450"
"19070",58,8,1497881435956," 7"," Symmetry2","a","b"," 3761"
"19071",58,9,1497881443850," 7"," Symmetry2","c","d"," 6022"
"19072",58,10,1497881447460," 7"," Symmetry2","b","a"," 2343"
