"","WorkerID","Trial","TimeStamp","Condition","Argument1","Correct","ConditionID","Testarg1","Testarg2","Question","Response","ResponseImage","RT"
"13055",86,8,1497471019149," 3"," static/images/o2.png"," static/images/o1.png"," Constant2"," static/images/o3.png"," static/images/o3.png"," b"," c"," static/images/o1.png"," 9276"
"13056",86,9,1497471028653," 3"," static/images/o2.png"," static/images/o1.png"," Constant2"," static/images/o2.png"," static/images/o2.png"," a"," c"," static/images/o1.png"," 6322"
"13057",86,10,1497471033737," 3"," static/images/o2.png"," static/images/o1.png"," Constant2"," static/images/o1.png"," static/images/o2.png"," c"," d"," static/images/o5.png"," 3867"
"13058",86,11,1497471037938," 3"," static/images/o2.png"," static/images/o1.png"," Constant2"," static/images/o5.png"," static/images/o2.png"," d"," e"," static/images/o6.png"," 3261"
"13066",295,8,1497471013706," 1"," static/images/o4.png"," static/images/o2.png"," Successor2"," static/images/o6.png"," static/images/o4.png"," c"," d"," static/images/o1.png"," 5128"
"13067",295,9,1497471019874," 1"," static/images/o4.png"," static/images/o2.png"," Successor2"," static/images/o4.png"," static/images/o4.png"," a"," b"," static/images/o2.png"," 5455"
"13068",295,10,1497471022449," 1"," static/images/o4.png"," static/images/o2.png"," Successor2"," static/images/o2.png"," static/images/o2.png"," b"," c"," static/images/o6.png"," 2007"
"13082",165,8,1497471122917," 2"," static/images/o2.png"," static/images/o4.png"," Constant1"," static/images/o5.png"," static/images/o5.png"," b"," d"," static/images/o1.png"," 12865"
"13083",165,9,1497471129955," 2"," static/images/o2.png"," static/images/o4.png"," Constant1"," static/images/o2.png"," static/images/o2.png"," a"," c"," static/images/o4.png"," 6268"
"13091",612,8,1497471111534," 3"," static/images/o1.png"," static/images/o6.png"," Constant2"," static/images/o3.png"," static/images/o1.png"," d"," d"," static/images/o3.png"," 12300"
"13092",612,9,1497471118425," 3"," static/images/o1.png"," static/images/o6.png"," Constant2"," static/images/o2.png"," static/images/o2.png"," b"," c"," static/images/o6.png"," 5408"
"13093",612,10,1497471124628," 3"," static/images/o1.png"," static/images/o6.png"," Constant2"," static/images/o6.png"," static/images/o1.png"," c"," e"," static/images/o5.png"," 5307"
"13094",612,11,1497471128305," 3"," static/images/o1.png"," static/images/o6.png"," Constant2"," static/images/o1.png"," static/images/o1.png"," a"," b"," static/images/o2.png"," 2810"
"13103",172,8,1497471088715," 0"," static/images/o1.png"," static/images/o6.png"," Successor1"," static/images/o1.png"," static/images/o1.png"," a"," b"," static/images/o6.png"," 2945"
"13104",172,9,1497471101353," 0"," static/images/o1.png"," static/images/o6.png"," Successor1"," static/images/o6.png"," static/images/o6.png"," b"," c"," static/images/o3.png"," 10841"
"13112",573,8,1497471094605," 1"," static/images/o1.png"," static/images/o4.png"," Successor2"," static/images/o2.png"," static/images/o1.png"," c"," d"," static/images/o6.png"," 3323"
"13113",573,9,1497471102104," 1"," static/images/o1.png"," static/images/o4.png"," Successor2"," static/images/o1.png"," static/images/o1.png"," a"," b"," static/images/o4.png"," 5828"
"13114",573,10,1497471105549," 1"," static/images/o1.png"," static/images/o4.png"," Successor2"," static/images/o4.png"," static/images/o4.png"," b"," c"," static/images/o2.png"," 2627"
"13122",460,8,1497471137386," 4"," static/images/o6.png"," static/images/o6.png"," Identity1"," static/images/o4.png"," static/images/o4.png"," b"," b"," static/images/o4.png"," 5303"
"13123",460,9,1497471142099," 4"," static/images/o6.png"," static/images/o6.png"," Identity1"," static/images/o6.png"," static/images/o6.png"," a"," a"," static/images/o6.png"," 2816"
"13131",390,8,1497471092004," 3"," static/images/o1.png"," static/images/o4.png"," Constant2"," static/images/o3.png"," static/images/o1.png"," d"," d"," static/images/o3.png"," 3149"
"13132",390,9,1497471098477," 3"," static/images/o1.png"," static/images/o4.png"," Constant2"," static/images/o4.png"," static/images/o1.png"," c"," c"," static/images/o4.png"," 4184"
"13133",390,10,1497471100958," 3"," static/images/o1.png"," static/images/o4.png"," Constant2"," static/images/o6.png"," static/images/o6.png"," b"," c"," static/images/o4.png"," 2128"
"13134",390,11,1497471103749," 3"," static/images/o1.png"," static/images/o4.png"," Constant2"," static/images/o1.png"," static/images/o1.png"," a"," c"," static/images/o4.png"," 1870"
"13142",276,8,1497471194431," 3"," static/images/o2.png"," static/images/o6.png"," Constant2"," static/images/o5.png"," static/images/o2.png"," d"," c"," static/images/o6.png"," 7497"
"13143",276,9,1497471200949," 3"," static/images/o2.png"," static/images/o6.png"," Constant2"," static/images/o6.png"," static/images/o2.png"," c"," a"," static/images/o2.png"," 5014"
"13144",276,10,1497471206071," 3"," static/images/o2.png"," static/images/o6.png"," Constant2"," static/images/o2.png"," static/images/o2.png"," a"," c"," static/images/o6.png"," 3857"
"13145",276,11,1497471209552," 3"," static/images/o2.png"," static/images/o6.png"," Constant2"," static/images/o3.png"," static/images/o3.png"," b"," c"," static/images/o6.png"," 2706"
"13153",617,8,1497471172523," 0"," static/images/o3.png"," static/images/o6.png"," Successor1"," static/images/o6.png"," static/images/o6.png"," b"," c"," static/images/o2.png"," 4748"
"13154",617,9,1497471177679," 0"," static/images/o3.png"," static/images/o6.png"," Successor1"," static/images/o3.png"," static/images/o3.png"," a"," b"," static/images/o6.png"," 4086"
"13162",124,8,1497471196407," 4"," static/images/o5.png"," static/images/o5.png"," Identity1"," static/images/o5.png"," static/images/o5.png"," a"," a"," static/images/o5.png"," 4206"
"13163",124,9,1497471201342," 4"," static/images/o5.png"," static/images/o5.png"," Identity1"," static/images/o6.png"," static/images/o6.png"," b"," c"," static/images/o1.png"," 4040"
"13171",133,8,1497471631972," 2"," static/images/o3.png"," static/images/o1.png"," Constant1"," static/images/o3.png"," static/images/o3.png"," a"," c"," static/images/o1.png"," 9747"
"13172",133,9,1497471643392," 2"," static/images/o3.png"," static/images/o1.png"," Constant1"," static/images/o6.png"," static/images/o6.png"," b"," a"," static/images/o3.png"," 9712"
"13180",448,8,1497471242951," 1"," static/images/o6.png"," static/images/o4.png"," Successor2"," static/images/o6.png"," static/images/o6.png"," a"," d"," static/images/o3.png"," 10163"
"13181",448,9,1497471253195," 1"," static/images/o6.png"," static/images/o4.png"," Successor2"," static/images/o2.png"," static/images/o6.png"," c"," d"," static/images/o3.png"," 8280"
"13182",448,10,1497471261096," 1"," static/images/o6.png"," static/images/o4.png"," Successor2"," static/images/o4.png"," static/images/o4.png"," b"," c"," static/images/o2.png"," 5063"
"13190",251,8,1497471188732," 0"," static/images/o1.png"," static/images/o5.png"," Successor1"," static/images/o1.png"," static/images/o1.png"," a"," c"," static/images/o3.png"," 8492"
"13191",251,9,1497471193242," 0"," static/images/o1.png"," static/images/o5.png"," Successor1"," static/images/o5.png"," static/images/o5.png"," b"," c"," static/images/o3.png"," 3881"
"13199",167,8,1497471292721," 4"," static/images/o3.png"," static/images/o3.png"," Identity1"," static/images/o3.png"," static/images/o3.png"," a"," b"," static/images/o1.png"," 16865"
"13200",167,9,1497471300581," 4"," static/images/o3.png"," static/images/o3.png"," Identity1"," static/images/o1.png"," static/images/o1.png"," b"," c"," static/images/o5.png"," 6616"
"13208",624,8,1497471334810," 2"," static/images/o2.png"," static/images/o4.png"," Constant1"," static/images/o2.png"," static/images/o2.png"," a"," c"," static/images/o4.png"," 6639"
"13209",624,9,1497471343834," 2"," static/images/o2.png"," static/images/o4.png"," Constant1"," static/images/o5.png"," static/images/o5.png"," b"," d"," static/images/o1.png"," 6848"
"13217",283,8,1497471281022," 1"," static/images/o1.png"," static/images/o2.png"," Successor2"," static/images/o1.png"," static/images/o1.png"," a"," b"," static/images/o2.png"," 6623"
"13218",283,9,1497471284343," 1"," static/images/o1.png"," static/images/o2.png"," Successor2"," static/images/o2.png"," static/images/o2.png"," b"," c"," static/images/o6.png"," 2113"
"13219",283,10,1497471287774," 1"," static/images/o1.png"," static/images/o2.png"," Successor2"," static/images/o6.png"," static/images/o1.png"," c"," d"," static/images/o3.png"," 2687"
"13227",616,8,1497471387639," 3"," static/images/o6.png"," static/images/o5.png"," Constant2"," static/images/o3.png"," static/images/o3.png"," b"," c"," static/images/o5.png"," 7902"
"13228",616,9,1497471395315," 3"," static/images/o6.png"," static/images/o5.png"," Constant2"," static/images/o6.png"," static/images/o6.png"," a"," c"," static/images/o5.png"," 4464"
"13229",616,10,1497471406455," 3"," static/images/o6.png"," static/images/o5.png"," Constant2"," static/images/o5.png"," static/images/o6.png"," c"," e"," static/images/o4.png"," 9025"
"13230",616,11,1497471412113," 3"," static/images/o6.png"," static/images/o5.png"," Constant2"," static/images/o2.png"," static/images/o6.png"," d"," c"," static/images/o5.png"," 4355"
"13238",337,8,1497471348266," 1"," static/images/o4.png"," static/images/o5.png"," Successor2"," static/images/o4.png"," static/images/o4.png"," a"," b"," static/images/o5.png"," 6095"
"13239",337,9,1497471352994," 1"," static/images/o4.png"," static/images/o5.png"," Successor2"," static/images/o3.png"," static/images/o4.png"," c"," d"," static/images/o1.png"," 3557"
"13240",337,10,1497471355834," 1"," static/images/o4.png"," static/images/o5.png"," Successor2"," static/images/o5.png"," static/images/o5.png"," b"," c"," static/images/o3.png"," 2136"
"13248",148,8,1497471440871," 2"," static/images/o1.png"," static/images/o2.png"," Constant1"," static/images/o6.png"," static/images/o6.png"," b"," d"," static/images/o3.png"," 13348"
"13249",148,9,1497471447439," 2"," static/images/o1.png"," static/images/o2.png"," Constant1"," static/images/o1.png"," static/images/o1.png"," a"," b"," static/images/o6.png"," 4375"
"13257",628,8,1497471434849," 0"," static/images/o1.png"," static/images/o2.png"," Successor1"," static/images/o1.png"," static/images/o1.png"," a"," b"," static/images/o2.png"," 3571"
"13258",628,9,1497471440177," 0"," static/images/o1.png"," static/images/o2.png"," Successor1"," static/images/o2.png"," static/images/o2.png"," b"," a"," static/images/o1.png"," 4066"
"13266",194,8,1497471433417," 3"," static/images/o3.png"," static/images/o4.png"," Constant2"," static/images/o4.png"," static/images/o3.png"," c"," e"," static/images/o6.png"," 6288"
"13267",194,9,1497471441126," 3"," static/images/o3.png"," static/images/o4.png"," Constant2"," static/images/o5.png"," static/images/o5.png"," b"," c"," static/images/o4.png"," 6448"
"13268",194,10,1497471446353," 3"," static/images/o3.png"," static/images/o4.png"," Constant2"," static/images/o3.png"," static/images/o3.png"," a"," c"," static/images/o4.png"," 3033"
"13269",194,11,1497471452950," 3"," static/images/o3.png"," static/images/o4.png"," Constant2"," static/images/o1.png"," static/images/o3.png"," d"," e"," static/images/o6.png"," 5745"
"13277",140,8,1497471541424," 4"," static/images/o4.png"," static/images/o4.png"," Identity1"," static/images/o3.png"," static/images/o3.png"," b"," b"," static/images/o3.png"," 4232"
"13278",140,9,1497471548486," 4"," static/images/o4.png"," static/images/o4.png"," Identity1"," static/images/o4.png"," static/images/o4.png"," a"," a"," static/images/o4.png"," 4576"
"13286",568,8,1497471389383," 0"," static/images/o1.png"," static/images/o3.png"," Successor1"," static/images/o1.png"," static/images/o1.png"," a"," b"," static/images/o3.png"," 7996"
"13287",568,9,1497471392317," 0"," static/images/o1.png"," static/images/o3.png"," Successor1"," static/images/o3.png"," static/images/o3.png"," b"," c"," static/images/o6.png"," 2196"
"13295",255,8,1497471510785," 1"," static/images/o2.png"," static/images/o3.png"," Successor2"," static/images/o2.png"," static/images/o2.png"," a"," b"," static/images/o3.png"," 35081"
"13296",255,9,1497471518205," 1"," static/images/o2.png"," static/images/o3.png"," Successor2"," static/images/o3.png"," static/images/o3.png"," b"," c"," static/images/o1.png"," 4971"
"13297",255,10,1497471522879," 1"," static/images/o2.png"," static/images/o3.png"," Successor2"," static/images/o1.png"," static/images/o2.png"," c"," d"," static/images/o5.png"," 2984"
"13305",111,8,1497471449810," 4"," static/images/o4.png"," static/images/o4.png"," Identity1"," static/images/o2.png"," static/images/o2.png"," b"," c"," static/images/o6.png"," 6954"
"13306",111,9,1497471456039," 4"," static/images/o4.png"," static/images/o4.png"," Identity1"," static/images/o4.png"," static/images/o4.png"," a"," a"," static/images/o4.png"," 4010"
"13314",20,8,1497471420452," 2"," static/images/o3.png"," static/images/o5.png"," Constant1"," static/images/o3.png"," static/images/o3.png"," a"," b"," static/images/o1.png"," 9712"
"13315",20,9,1497471425145," 2"," static/images/o3.png"," static/images/o5.png"," Constant1"," static/images/o1.png"," static/images/o1.png"," b"," d"," static/images/o4.png"," 3089"
"13323",232,8,1497471507194," 0"," static/images/o2.png"," static/images/o4.png"," Successor1"," static/images/o4.png"," static/images/o4.png"," b"," c"," static/images/o1.png"," 7658"
"13324",232,9,1497471511428," 0"," static/images/o2.png"," static/images/o4.png"," Successor1"," static/images/o2.png"," static/images/o2.png"," a"," b"," static/images/o4.png"," 3548"
"13332",207,8,1497471488242," 3"," static/images/o1.png"," static/images/o6.png"," Constant2"," static/images/o2.png"," static/images/o1.png"," d"," c"," static/images/o6.png"," 7313"
"13333",207,9,1497471496362," 3"," static/images/o1.png"," static/images/o6.png"," Constant2"," static/images/o1.png"," static/images/o1.png"," a"," c"," static/images/o6.png"," 6097"
"13334",207,10,1497471502223," 3"," static/images/o1.png"," static/images/o6.png"," Constant2"," static/images/o6.png"," static/images/o1.png"," c"," c"," static/images/o6.png"," 4432"
"13335",207,11,1497471505114," 3"," static/images/o1.png"," static/images/o6.png"," Constant2"," static/images/o3.png"," static/images/o3.png"," b"," c"," static/images/o6.png"," 1992"
"13343",648,8,1497471454784," 2"," static/images/o3.png"," static/images/o4.png"," Constant1"," static/images/o6.png"," static/images/o6.png"," b"," d"," static/images/o2.png"," 8391"
"13344",648,9,1497471466449," 2"," static/images/o3.png"," static/images/o4.png"," Constant1"," static/images/o3.png"," static/images/o3.png"," a"," d"," static/images/o2.png"," 10878"
"13352",150,8,1497471612417," 4"," static/images/o4.png"," static/images/o4.png"," Identity1"," static/images/o2.png"," static/images/o2.png"," b"," b"," static/images/o2.png"," 3743"
"13353",150,9,1497471615755," 4"," static/images/o4.png"," static/images/o4.png"," Identity1"," static/images/o4.png"," static/images/o4.png"," a"," a"," static/images/o4.png"," 2282"
"13361",335,8,1497471730533," 1"," static/images/o5.png"," static/images/o1.png"," Successor2"," static/images/o6.png"," static/images/o5.png"," c"," d"," static/images/o4.png"," 20118"
"13362",335,9,1497471743351," 1"," static/images/o5.png"," static/images/o1.png"," Successor2"," static/images/o1.png"," static/images/o1.png"," b"," c"," static/images/o6.png"," 10822"
"13363",335,10,1497471747912," 1"," static/images/o5.png"," static/images/o1.png"," Successor2"," static/images/o5.png"," static/images/o5.png"," a"," b"," static/images/o1.png"," 2770"
"13371",83,8,1497472043730," 1"," static/images/o1.png"," static/images/o2.png"," Successor2"," static/images/o2.png"," static/images/o2.png"," b"," c"," static/images/o6.png"," 17489"
"13372",83,9,1497472050230," 1"," static/images/o1.png"," static/images/o2.png"," Successor2"," static/images/o1.png"," static/images/o1.png"," a"," b"," static/images/o2.png"," 2786"
"13373",83,10,1497472066826," 1"," static/images/o1.png"," static/images/o2.png"," Successor2"," static/images/o6.png"," static/images/o1.png"," c"," d"," static/images/o5.png"," 14636"
"13381",528,8,1497471761531," 3"," static/images/o6.png"," static/images/o4.png"," Constant2"," static/images/o2.png"," static/images/o2.png"," b"," c"," static/images/o4.png"," 7222"
"13382",528,9,1497471766710," 3"," static/images/o6.png"," static/images/o4.png"," Constant2"," static/images/o6.png"," static/images/o6.png"," a"," c"," static/images/o4.png"," 3251"
"13383",528,10,1497471772998," 3"," static/images/o6.png"," static/images/o4.png"," Constant2"," static/images/o5.png"," static/images/o6.png"," d"," e"," static/images/o1.png"," 5482"
"13384",528,11,1497471783380," 3"," static/images/o6.png"," static/images/o4.png"," Constant2"," static/images/o4.png"," static/images/o6.png"," c"," e"," static/images/o1.png"," 9129"
"13392",641,8,1497471651085," 2"," static/images/o3.png"," static/images/o5.png"," Constant1"," static/images/o1.png"," static/images/o1.png"," b"," b"," static/images/o1.png"," 23027"
"13393",641,9,1497471658041," 2"," static/images/o3.png"," static/images/o5.png"," Constant1"," static/images/o3.png"," static/images/o3.png"," a"," a"," static/images/o3.png"," 2877"
"13401",293,8,1497472037206," 0"," static/images/o6.png"," static/images/o4.png"," Successor1"," static/images/o4.png"," static/images/o4.png"," b"," c"," static/images/o5.png"," 19541"
"13402",293,9,1497472057170," 0"," static/images/o6.png"," static/images/o4.png"," Successor1"," static/images/o6.png"," static/images/o6.png"," a"," c"," static/images/o5.png"," 15255"
"13410",80,8,1497471860543," 4"," static/images/o3.png"," static/images/o3.png"," Identity1"," static/images/o3.png"," static/images/o3.png"," a"," c"," static/images/o2.png"," 45244"
"13411",80,9,1497471872129," 4"," static/images/o3.png"," static/images/o3.png"," Identity1"," static/images/o4.png"," static/images/o4.png"," b"," c"," static/images/o2.png"," 6011"
"13419",38,8,1497471731929," 0"," static/images/o6.png"," static/images/o2.png"," Successor1"," static/images/o2.png"," static/images/o2.png"," b"," a"," static/images/o6.png"," 12437"
"13420",38,9,1497471734759," 0"," static/images/o6.png"," static/images/o2.png"," Successor1"," static/images/o6.png"," static/images/o6.png"," a"," b"," static/images/o2.png"," 2104"
"13428",30,8,1497471884446," 4"," static/images/o3.png"," static/images/o3.png"," Identity1"," static/images/o3.png"," static/images/o3.png"," a"," a"," static/images/o3.png"," 5311"
"13429",30,9,1497471890629," 4"," static/images/o3.png"," static/images/o3.png"," Identity1"," static/images/o2.png"," static/images/o2.png"," b"," b"," static/images/o2.png"," 4486"
"13437",509,8,1497471874070," 1"," static/images/o5.png"," static/images/o2.png"," Successor2"," static/images/o5.png"," static/images/o5.png"," a"," b"," static/images/o2.png"," 6488"
"13438",509,9,1497471879735," 1"," static/images/o5.png"," static/images/o2.png"," Successor2"," static/images/o2.png"," static/images/o2.png"," b"," b"," static/images/o2.png"," 4444"
"13439",509,10,1497471894286," 1"," static/images/o5.png"," static/images/o2.png"," Successor2"," static/images/o3.png"," static/images/o5.png"," c"," d"," static/images/o6.png"," 6778"
"13447",597,8,1497471650335," 2"," static/images/o6.png"," static/images/o4.png"," Constant1"," static/images/o6.png"," static/images/o6.png"," a"," c"," static/images/o4.png"," 11452"
"13448",597,9,1497471663952," 2"," static/images/o6.png"," static/images/o4.png"," Constant1"," static/images/o3.png"," static/images/o3.png"," b"," a"," static/images/o6.png"," 10486"
"13456",308,8,1497471984633," 3"," static/images/o6.png"," static/images/o2.png"," Constant2"," static/images/o1.png"," static/images/o6.png"," d"," e"," static/images/o3.png"," 14080"
"13457",308,9,1497471997318," 3"," static/images/o6.png"," static/images/o2.png"," Constant2"," static/images/o2.png"," static/images/o6.png"," c"," b"," static/images/o5.png"," 11687"
"13458",308,10,1497472011472," 3"," static/images/o6.png"," static/images/o2.png"," Constant2"," static/images/o5.png"," static/images/o5.png"," b"," c"," static/images/o2.png"," 13488"
"13459",308,11,1497472021171," 3"," static/images/o6.png"," static/images/o2.png"," Constant2"," static/images/o6.png"," static/images/o6.png"," a"," c"," static/images/o2.png"," 9039"
"13467",311,8,1497472194528," 3"," static/images/o3.png"," static/images/o2.png"," Constant2"," static/images/o5.png"," static/images/o3.png"," d"," e"," static/images/o4.png"," 9033"
"13468",311,9,1497472204106," 3"," static/images/o3.png"," static/images/o2.png"," Constant2"," static/images/o2.png"," static/images/o3.png"," c"," d"," static/images/o5.png"," 7124"
"13469",311,10,1497472208736," 3"," static/images/o3.png"," static/images/o2.png"," Constant2"," static/images/o3.png"," static/images/o3.png"," a"," c"," static/images/o2.png"," 3466"
"13470",311,11,1497472214513," 3"," static/images/o3.png"," static/images/o2.png"," Constant2"," static/images/o6.png"," static/images/o6.png"," b"," a"," static/images/o3.png"," 4169"
"13478",274,8,1497472066496," 1"," static/images/o5.png"," static/images/o1.png"," Successor2"," static/images/o4.png"," static/images/o5.png"," c"," d"," static/images/o3.png"," 9642"
"13479",274,9,1497472071084," 1"," static/images/o5.png"," static/images/o1.png"," Successor2"," static/images/o5.png"," static/images/o5.png"," a"," b"," static/images/o1.png"," 2974"
"13480",274,10,1497472076663," 1"," static/images/o5.png"," static/images/o1.png"," Successor2"," static/images/o1.png"," static/images/o1.png"," b"," c"," static/images/o4.png"," 4220"
"13488",342,8,1497472122266," 0"," static/images/o2.png"," static/images/o1.png"," Successor1"," static/images/o1.png"," static/images/o1.png"," b"," c"," static/images/o5.png"," 4608"
"13489",342,9,1497472127456," 0"," static/images/o2.png"," static/images/o1.png"," Successor1"," static/images/o2.png"," static/images/o2.png"," a"," b"," static/images/o1.png"," 4325"
"13497",452,8,1497472139859," 2"," static/images/o4.png"," static/images/o1.png"," Constant1"," static/images/o4.png"," static/images/o4.png"," a"," b"," static/images/o2.png"," 4958"
"13498",452,9,1497472146613," 2"," static/images/o4.png"," static/images/o1.png"," Constant1"," static/images/o2.png"," static/images/o2.png"," b"," d"," static/images/o6.png"," 5014"
"13506",227,8,1497472192867," 4"," static/images/o2.png"," static/images/o2.png"," Identity1"," static/images/o2.png"," static/images/o2.png"," a"," a"," static/images/o2.png"," 9687"
"13507",227,9,1497472197545," 4"," static/images/o2.png"," static/images/o2.png"," Identity1"," static/images/o5.png"," static/images/o5.png"," b"," b"," static/images/o5.png"," 2854"
"13515",600,8,1497472234388," 1"," static/images/o4.png"," static/images/o3.png"," Successor2"," static/images/o5.png"," static/images/o4.png"," c"," b"," static/images/o3.png"," 6320"
"13516",600,9,1497472244915," 1"," static/images/o4.png"," static/images/o3.png"," Successor2"," static/images/o4.png"," static/images/o4.png"," a"," d"," static/images/o1.png"," 4218"
"13517",600,10,1497472248303," 1"," static/images/o4.png"," static/images/o3.png"," Successor2"," static/images/o3.png"," static/images/o3.png"," b"," c"," static/images/o5.png"," 1932"
"13525",175,8,1497472395822," 2"," static/images/o6.png"," static/images/o4.png"," Constant1"," static/images/o2.png"," static/images/o2.png"," b"," c"," static/images/o4.png"," 10789"
"13526",175,9,1497472404984," 2"," static/images/o6.png"," static/images/o4.png"," Constant1"," static/images/o6.png"," static/images/o6.png"," a"," c"," static/images/o4.png"," 6644"
"13534",126,8,1497472341323," 0"," static/images/o4.png"," static/images/o2.png"," Successor1"," static/images/o4.png"," static/images/o4.png"," a"," c"," static/images/o3.png"," 2983"
"13535",126,9,1497472347507," 0"," static/images/o4.png"," static/images/o2.png"," Successor1"," static/images/o2.png"," static/images/o2.png"," b"," c"," static/images/o3.png"," 4782"
"13543",554,8,1497472443120," 3"," static/images/o5.png"," static/images/o2.png"," Constant2"," static/images/o2.png"," static/images/o5.png"," c"," e"," static/images/o4.png"," 83564"
"13544",554,9,1497472451476," 3"," static/images/o5.png"," static/images/o2.png"," Constant2"," static/images/o5.png"," static/images/o5.png"," a"," b"," static/images/o1.png"," 6486"
"13545",554,10,1497472456732," 3"," static/images/o5.png"," static/images/o2.png"," Constant2"," static/images/o6.png"," static/images/o5.png"," d"," c"," static/images/o2.png"," 3959"
"13546",554,11,1497472465359," 3"," static/images/o5.png"," static/images/o2.png"," Constant2"," static/images/o1.png"," static/images/o1.png"," b"," d"," static/images/o6.png"," 7898"
"13554",391,8,1497472336831," 4"," static/images/o1.png"," static/images/o1.png"," Identity1"," static/images/o4.png"," static/images/o4.png"," b"," c"," static/images/o2.png"," 7920"
"13555",391,9,1497472340683," 4"," static/images/o1.png"," static/images/o1.png"," Identity1"," static/images/o1.png"," static/images/o1.png"," a"," a"," static/images/o1.png"," 2561"
"13562",433,8,1497472395370," 0"," static/images/o3.png"," static/images/o6.png"," Successor1"," static/images/o3.png"," static/images/o3.png"," a"," b"," static/images/o6.png"," 3955"
"13563",433,9,1497472404819," 0"," static/images/o3.png"," static/images/o6.png"," Successor1"," static/images/o6.png"," static/images/o6.png"," b"," c"," static/images/o1.png"," 4761"
"13571",647,8,1497472545283," 1"," static/images/o3.png"," static/images/o4.png"," Successor2"," static/images/o3.png"," static/images/o3.png"," a"," a"," static/images/o3.png"," 14871"
"13572",647,9,1497472550991," 1"," static/images/o3.png"," static/images/o4.png"," Successor2"," static/images/o4.png"," static/images/o4.png"," b"," c"," static/images/o1.png"," 4201"
"13573",647,10,1497472556119," 1"," static/images/o3.png"," static/images/o4.png"," Successor2"," static/images/o1.png"," static/images/o3.png"," c"," a"," static/images/o3.png"," 4026"
"13581",417,8,1497472564157," 3"," static/images/o4.png"," static/images/o2.png"," Constant2"," static/images/o5.png"," static/images/o4.png"," d"," e"," static/images/o1.png"," 8528"
"13582",417,9,1497472575221," 3"," static/images/o4.png"," static/images/o2.png"," Constant2"," static/images/o2.png"," static/images/o4.png"," c"," d"," static/images/o5.png"," 8870"
"13583",417,10,1497472581321," 3"," static/images/o4.png"," static/images/o2.png"," Constant2"," static/images/o6.png"," static/images/o6.png"," b"," c"," static/images/o2.png"," 4979"
"13584",417,11,1497472587737," 3"," static/images/o4.png"," static/images/o2.png"," Constant2"," static/images/o4.png"," static/images/o4.png"," a"," c"," static/images/o2.png"," 3344"
"13592",363,8,1497472511274," 4"," static/images/o1.png"," static/images/o1.png"," Identity1"," static/images/o1.png"," static/images/o1.png"," a"," b"," static/images/o2.png"," 5885"
"13593",363,9,1497472521418," 4"," static/images/o1.png"," static/images/o1.png"," Identity1"," static/images/o2.png"," static/images/o2.png"," b"," c"," static/images/o5.png"," 8496"
"13601",317,8,1497472881050," 2"," static/images/o6.png"," static/images/o1.png"," Constant1"," static/images/o5.png"," static/images/o5.png"," b"," d"," static/images/o3.png"," 11373"
"13602",317,9,1497472902550," 2"," static/images/o6.png"," static/images/o1.png"," Constant1"," static/images/o6.png"," static/images/o6.png"," a"," c"," static/images/o1.png"," 16916"
"13610",516,8,1497472574334," 0"," static/images/o4.png"," static/images/o5.png"," Successor1"," static/images/o5.png"," static/images/o5.png"," b"," c"," static/images/o6.png"," 10631"
"13611",516,9,1497472584442," 0"," static/images/o4.png"," static/images/o5.png"," Successor1"," static/images/o4.png"," static/images/o4.png"," a"," c"," static/images/o6.png"," 4026"
"13619",526,8,1497472682080," 1"," static/images/o4.png"," static/images/o6.png"," Successor2"," static/images/o6.png"," static/images/o6.png"," b"," c"," static/images/o1.png"," 13495"
"13620",526,9,1497472693751," 1"," static/images/o4.png"," static/images/o6.png"," Successor2"," static/images/o1.png"," static/images/o4.png"," c"," d"," static/images/o5.png"," 9376"
"13621",526,10,1497472703974," 1"," static/images/o4.png"," static/images/o6.png"," Successor2"," static/images/o4.png"," static/images/o4.png"," a"," b"," static/images/o6.png"," 7999"
"13629",645,8,1497472693256," 3"," static/images/o3.png"," static/images/o1.png"," Constant2"," static/images/o3.png"," static/images/o3.png"," a"," c"," static/images/o1.png"," 4065"
"13630",645,9,1497472696562," 3"," static/images/o3.png"," static/images/o1.png"," Constant2"," static/images/o4.png"," static/images/o4.png"," b"," c"," static/images/o1.png"," 2346"
"13631",645,10,1497472703098," 3"," static/images/o3.png"," static/images/o1.png"," Constant2"," static/images/o6.png"," static/images/o3.png"," d"," e"," static/images/o2.png"," 4985"
"13632",645,11,1497472707793," 3"," static/images/o3.png"," static/images/o1.png"," Constant2"," static/images/o1.png"," static/images/o3.png"," c"," d"," static/images/o6.png"," 3500"
"13646",131,8,1497472840181," 1"," static/images/o4.png"," static/images/o6.png"," Successor2"," static/images/o1.png"," static/images/o4.png"," c"," d"," static/images/o2.png"," 4851"
"13647",131,9,1497472847526," 1"," static/images/o4.png"," static/images/o6.png"," Successor2"," static/images/o6.png"," static/images/o6.png"," b"," d"," static/images/o2.png"," 5899"
"13648",131,10,1497472851622," 1"," static/images/o4.png"," static/images/o6.png"," Successor2"," static/images/o4.png"," static/images/o4.png"," a"," b"," static/images/o6.png"," 3177"
"13656",136,8,1497472858014," 0"," static/images/o5.png"," static/images/o1.png"," Successor1"," static/images/o1.png"," static/images/o1.png"," b"," a"," static/images/o5.png"," 6846"
"13657",136,9,1497472866809," 0"," static/images/o5.png"," static/images/o1.png"," Successor1"," static/images/o5.png"," static/images/o5.png"," a"," b"," static/images/o1.png"," 7594"
"13665",221,8,1497473060505," 0"," static/images/o1.png"," static/images/o2.png"," Successor1"," static/images/o2.png"," static/images/o2.png"," b"," c"," static/images/o6.png"," 28899"
"13666",221,9,1497473075216," 0"," static/images/o1.png"," static/images/o2.png"," Successor1"," static/images/o1.png"," static/images/o1.png"," a"," b"," static/images/o2.png"," 13186"
"13674",186,8,1497473045925," 4"," static/images/o6.png"," static/images/o6.png"," Identity1"," static/images/o6.png"," static/images/o6.png"," a"," c"," static/images/o5.png"," 10159"
"13675",186,9,1497473053884," 4"," static/images/o6.png"," static/images/o6.png"," Identity1"," static/images/o2.png"," static/images/o2.png"," b"," a"," static/images/o6.png"," 5922"
"13683",6,8,1497473091422," 3"," static/images/o3.png"," static/images/o1.png"," Constant2"," static/images/o1.png"," static/images/o3.png"," c"," b"," static/images/o2.png"," 11598"
"13684",6,9,1497473096695," 3"," static/images/o3.png"," static/images/o1.png"," Constant2"," static/images/o2.png"," static/images/o2.png"," b"," c"," static/images/o1.png"," 4750"
"13685",6,10,1497473102001," 3"," static/images/o3.png"," static/images/o1.png"," Constant2"," static/images/o3.png"," static/images/o3.png"," a"," c"," static/images/o1.png"," 3523"
"13686",6,11,1497473109195," 3"," static/images/o3.png"," static/images/o1.png"," Constant2"," static/images/o6.png"," static/images/o3.png"," d"," c"," static/images/o1.png"," 6333"
"13700",510,8,1497473208772," 0"," static/images/o6.png"," static/images/o1.png"," Successor1"," static/images/o6.png"," static/images/o6.png"," a"," b"," static/images/o1.png"," 4305"
"13701",510,9,1497473216482," 0"," static/images/o6.png"," static/images/o1.png"," Successor1"," static/images/o1.png"," static/images/o1.png"," b"," c"," static/images/o4.png"," 5227"
"13709",551,8,1497473100635," 4"," static/images/o5.png"," static/images/o5.png"," Identity1"," static/images/o5.png"," static/images/o5.png"," a"," a"," static/images/o5.png"," 4106"
"13710",551,9,1497473105474," 4"," static/images/o5.png"," static/images/o5.png"," Identity1"," static/images/o4.png"," static/images/o4.png"," b"," b"," static/images/o4.png"," 3516"
"13718",468,8,1497473141680," 2"," static/images/o3.png"," static/images/o1.png"," Constant1"," static/images/o4.png"," static/images/o4.png"," b"," b"," static/images/o4.png"," 6108"
"13719",468,9,1497473150043," 2"," static/images/o3.png"," static/images/o1.png"," Constant1"," static/images/o3.png"," static/images/o3.png"," a"," a"," static/images/o3.png"," 4547"
"13727",534,8,1497473248598," 3"," static/images/o6.png"," static/images/o1.png"," Constant2"," static/images/o2.png"," static/images/o2.png"," b"," c"," static/images/o1.png"," 35474"
"13728",534,9,1497473252828," 3"," static/images/o6.png"," static/images/o1.png"," Constant2"," static/images/o1.png"," static/images/o6.png"," c"," c"," static/images/o1.png"," 3257"
"13729",534,10,1497473255078," 3"," static/images/o6.png"," static/images/o1.png"," Constant2"," static/images/o6.png"," static/images/o6.png"," a"," a"," static/images/o6.png"," 1649"
"13730",534,11,1497473259388," 3"," static/images/o6.png"," static/images/o1.png"," Constant2"," static/images/o4.png"," static/images/o6.png"," d"," d"," static/images/o4.png"," 3773"
"13738",627,8,1497473398055," 1"," static/images/o3.png"," static/images/o5.png"," Successor2"," static/images/o5.png"," static/images/o5.png"," b"," d"," static/images/o1.png"," 6516"
"13739",627,9,1497473405577," 1"," static/images/o3.png"," static/images/o5.png"," Successor2"," static/images/o3.png"," static/images/o3.png"," a"," b"," static/images/o5.png"," 4312"
"13740",627,10,1497473413268," 1"," static/images/o3.png"," static/images/o5.png"," Successor2"," static/images/o4.png"," static/images/o3.png"," c"," d"," static/images/o1.png"," 6325"
"13748",435,8,1497473344633," 0"," static/images/o4.png"," static/images/o2.png"," Successor1"," static/images/o4.png"," static/images/o4.png"," a"," b"," static/images/o2.png"," 2514"
"13749",435,9,1497473347106," 0"," static/images/o4.png"," static/images/o2.png"," Successor1"," static/images/o2.png"," static/images/o2.png"," b"," a"," static/images/o4.png"," 2360"
"13763",477,8,1497473597797," 4"," static/images/o1.png"," static/images/o1.png"," Identity1"," static/images/o1.png"," static/images/o1.png"," a"," c"," static/images/o3.png"," 9788"
"13764",477,9,1497473604549," 4"," static/images/o1.png"," static/images/o1.png"," Identity1"," static/images/o2.png"," static/images/o2.png"," b"," b"," static/images/o2.png"," 3734"
"13772",264,8,1497473620513," 4"," static/images/o1.png"," static/images/o1.png"," Identity1"," static/images/o1.png"," static/images/o1.png"," a"," c"," static/images/o3.png"," 11092"
"13773",264,9,1497473630683," 4"," static/images/o1.png"," static/images/o1.png"," Identity1"," static/images/o4.png"," static/images/o4.png"," b"," c"," static/images/o3.png"," 8316"
"13781",501,8,1497473728660," 3"," static/images/o5.png"," static/images/o3.png"," Constant2"," static/images/o1.png"," static/images/o1.png"," b"," c"," static/images/o3.png"," 9062"
"13782",501,9,1497473746161," 3"," static/images/o5.png"," static/images/o3.png"," Constant2"," static/images/o3.png"," static/images/o5.png"," c"," d"," static/images/o6.png"," 13214"
"13783",501,10,1497473751521," 3"," static/images/o5.png"," static/images/o3.png"," Constant2"," static/images/o5.png"," static/images/o5.png"," a"," c"," static/images/o3.png"," 4240"
"13784",501,11,1497473757625," 3"," static/images/o5.png"," static/images/o3.png"," Constant2"," static/images/o6.png"," static/images/o5.png"," d"," e"," static/images/o4.png"," 4473"
"13792",637,8,1497473671121," 2"," static/images/o4.png"," static/images/o1.png"," Constant1"," static/images/o4.png"," static/images/o4.png"," a"," c"," static/images/o1.png"," 10013"
"13793",637,9,1497473678298," 2"," static/images/o4.png"," static/images/o1.png"," Constant1"," static/images/o2.png"," static/images/o2.png"," b"," d"," static/images/o6.png"," 5976"
"13801",622,8,1497473747578," 1"," static/images/o1.png"," static/images/o6.png"," Successor2"," static/images/o6.png"," static/images/o6.png"," b"," d"," static/images/o3.png"," 5687"
"13802",622,9,1497473760682," 1"," static/images/o1.png"," static/images/o6.png"," Successor2"," static/images/o1.png"," static/images/o1.png"," a"," b"," static/images/o6.png"," 2703"
"13803",622,10,1497473771294," 1"," static/images/o1.png"," static/images/o6.png"," Successor2"," static/images/o5.png"," static/images/o1.png"," c"," d"," static/images/o3.png"," 4672"
"13811",439,8,1497473709095," 0"," static/images/o3.png"," static/images/o5.png"," Successor1"," static/images/o3.png"," static/images/o3.png"," a"," b"," static/images/o5.png"," 8221"
"13812",439,9,1497473726050," 0"," static/images/o3.png"," static/images/o5.png"," Successor1"," static/images/o5.png"," static/images/o5.png"," b"," c"," static/images/o2.png"," 15729"
"13820",271,8,1497473830538," 1"," static/images/o6.png"," static/images/o4.png"," Successor2"," static/images/o6.png"," static/images/o6.png"," a"," d"," static/images/o2.png"," 8633"
"13821",271,9,1497473837277," 1"," static/images/o6.png"," static/images/o4.png"," Successor2"," static/images/o4.png"," static/images/o4.png"," b"," c"," static/images/o3.png"," 5432"
"13822",271,10,1497473843028," 1"," static/images/o6.png"," static/images/o4.png"," Successor2"," static/images/o3.png"," static/images/o6.png"," c"," d"," static/images/o2.png"," 3781"
"13830",313,8,1497473834233," 3"," static/images/o2.png"," static/images/o3.png"," Constant2"," static/images/o1.png"," static/images/o1.png"," b"," c"," static/images/o3.png"," 5909"
"13831",313,9,1497473851508," 3"," static/images/o2.png"," static/images/o3.png"," Constant2"," static/images/o3.png"," static/images/o2.png"," c"," b"," static/images/o1.png"," 15805"
"13832",313,10,1497473856406," 3"," static/images/o2.png"," static/images/o3.png"," Constant2"," static/images/o2.png"," static/images/o2.png"," a"," c"," static/images/o3.png"," 3159"
"13833",313,11,1497473864595," 3"," static/images/o2.png"," static/images/o3.png"," Constant2"," static/images/o5.png"," static/images/o2.png"," d"," c"," static/images/o3.png"," 2702"
"13841",382,8,1497473979157," 2"," static/images/o4.png"," static/images/o6.png"," Constant1"," static/images/o1.png"," static/images/o1.png"," b"," d"," static/images/o5.png"," 23772"
"13842",382,9,1497473992707," 2"," static/images/o4.png"," static/images/o6.png"," Constant1"," static/images/o4.png"," static/images/o4.png"," a"," c"," static/images/o6.png"," 8794"
"13850",630,8,1497473962100," 0"," static/images/o6.png"," static/images/o4.png"," Successor1"," static/images/o4.png"," static/images/o4.png"," b"," c"," static/images/o5.png"," 9807"
"13851",630,9,1497473983588," 0"," static/images/o6.png"," static/images/o4.png"," Successor1"," static/images/o6.png"," static/images/o6.png"," a"," b"," static/images/o4.png"," 20470"
"13859",428,8,1497473930067," 1"," static/images/o6.png"," static/images/o3.png"," Successor2"," static/images/o3.png"," static/images/o3.png"," b"," a"," static/images/o6.png"," 7605"
"13860",428,9,1497473938875," 1"," static/images/o6.png"," static/images/o3.png"," Successor2"," static/images/o6.png"," static/images/o6.png"," a"," b"," static/images/o3.png"," 7745"
"13861",428,10,1497473945362," 1"," static/images/o6.png"," static/images/o3.png"," Successor2"," static/images/o1.png"," static/images/o6.png"," c"," d"," static/images/o5.png"," 3640"
"13869",500,8,1497473951815," 4"," static/images/o4.png"," static/images/o4.png"," Identity1"," static/images/o4.png"," static/images/o4.png"," a"," a"," static/images/o4.png"," 5499"
"13870",500,9,1497473957451," 4"," static/images/o4.png"," static/images/o4.png"," Identity1"," static/images/o6.png"," static/images/o6.png"," b"," b"," static/images/o6.png"," 4214"
"13882",146,8,1497474210562," 0"," static/images/o2.png"," static/images/o3.png"," Successor1"," static/images/o2.png"," static/images/o2.png"," a"," b"," static/images/o3.png"," 9325"
"13883",146,9,1497474220869," 0"," static/images/o2.png"," static/images/o3.png"," Successor1"," static/images/o3.png"," static/images/o3.png"," b"," c"," static/images/o4.png"," 9369"
"13891",389,8,1497474126639," 2"," static/images/o1.png"," static/images/o2.png"," Constant1"," static/images/o3.png"," static/images/o3.png"," b"," d"," static/images/o4.png"," 7569"
"13892",389,9,1497474135237," 2"," static/images/o1.png"," static/images/o2.png"," Constant1"," static/images/o1.png"," static/images/o1.png"," a"," b"," static/images/o3.png"," 7230"
"13900",578,8,1497474221099," 4"," static/images/o2.png"," static/images/o2.png"," Identity1"," static/images/o6.png"," static/images/o6.png"," b"," c"," static/images/o5.png"," 5741"
"13901",578,9,1497474230750," 4"," static/images/o2.png"," static/images/o2.png"," Identity1"," static/images/o2.png"," static/images/o2.png"," a"," a"," static/images/o2.png"," 3633"
"13909",142,8,1497474208238," 3"," static/images/o2.png"," static/images/o5.png"," Constant2"," static/images/o6.png"," static/images/o6.png"," b"," c"," static/images/o5.png"," 10087"
"13910",142,9,1497474216746," 3"," static/images/o2.png"," static/images/o5.png"," Constant2"," static/images/o5.png"," static/images/o2.png"," c"," d"," static/images/o3.png"," 6859"
"13911",142,10,1497474225068," 3"," static/images/o2.png"," static/images/o5.png"," Constant2"," static/images/o3.png"," static/images/o2.png"," d"," e"," static/images/o1.png"," 3482"
"13912",142,11,1497474228571," 3"," static/images/o2.png"," static/images/o5.png"," Constant2"," static/images/o2.png"," static/images/o2.png"," a"," c"," static/images/o5.png"," 2191"
"13920",63,8,1497474317714," 0"," static/images/o2.png"," static/images/o6.png"," Successor1"," static/images/o2.png"," static/images/o2.png"," a"," c"," static/images/o5.png"," 6551"
"13921",63,9,1497474326908," 0"," static/images/o2.png"," static/images/o6.png"," Successor1"," static/images/o6.png"," static/images/o6.png"," b"," c"," static/images/o5.png"," 7825"
"13929",327,8,1497474565157," 4"," static/images/o6.png"," static/images/o6.png"," Identity1"," static/images/o1.png"," static/images/o1.png"," b"," c"," static/images/o2.png"," 17972"
"13930",327,9,1497474574751," 4"," static/images/o6.png"," static/images/o6.png"," Identity1"," static/images/o6.png"," static/images/o6.png"," a"," a"," static/images/o6.png"," 7061"
"13938",605,8,1497474589600," 1"," static/images/o4.png"," static/images/o1.png"," Successor2"," static/images/o1.png"," static/images/o1.png"," b"," d"," static/images/o6.png"," 17071"
"13939",605,9,1497474602743," 1"," static/images/o4.png"," static/images/o1.png"," Successor2"," static/images/o4.png"," static/images/o4.png"," a"," b"," static/images/o1.png"," 9359"
"13940",605,10,1497474609567," 1"," static/images/o4.png"," static/images/o1.png"," Successor2"," static/images/o5.png"," static/images/o4.png"," c"," d"," static/images/o6.png"," 4688"
"13948",21,8,1497474596195," 2"," static/images/o5.png"," static/images/o2.png"," Constant1"," static/images/o1.png"," static/images/o1.png"," b"," d"," static/images/o3.png"," 8914"
"13949",21,9,1497474603902," 2"," static/images/o5.png"," static/images/o2.png"," Constant1"," static/images/o5.png"," static/images/o5.png"," a"," c"," static/images/o2.png"," 6280"
"13957",493,8,1497474668945," 3"," static/images/o1.png"," static/images/o5.png"," Constant2"," static/images/o5.png"," static/images/o1.png"," c"," d"," static/images/o6.png"," 18227"
"13958",493,9,1497474681024," 3"," static/images/o1.png"," static/images/o5.png"," Constant2"," static/images/o3.png"," static/images/o3.png"," b"," c"," static/images/o5.png"," 10775"
"13959",493,10,1497474692159," 3"," static/images/o1.png"," static/images/o5.png"," Constant2"," static/images/o1.png"," static/images/o1.png"," a"," c"," static/images/o5.png"," 7668"
"13960",493,11,1497474699154," 3"," static/images/o1.png"," static/images/o5.png"," Constant2"," static/images/o6.png"," static/images/o1.png"," d"," e"," static/images/o2.png"," 5893"
"13968",579,8,1497474589216," 4"," static/images/o3.png"," static/images/o3.png"," Identity1"," static/images/o3.png"," static/images/o3.png"," a"," b"," static/images/o1.png"," 5880"
"13969",579,9,1497474593339," 4"," static/images/o3.png"," static/images/o3.png"," Identity1"," static/images/o1.png"," static/images/o1.png"," b"," a"," static/images/o3.png"," 3188"
"13977",277,8,1497474863668," 2"," static/images/o4.png"," static/images/o2.png"," Constant1"," static/images/o4.png"," static/images/o4.png"," a"," c"," static/images/o2.png"," 19855"
"13978",277,9,1497474882650," 2"," static/images/o4.png"," static/images/o2.png"," Constant1"," static/images/o1.png"," static/images/o1.png"," b"," a"," static/images/o4.png"," 15014"
"13986",614,8,1497474838041," 3"," static/images/o3.png"," static/images/o4.png"," Constant2"," static/images/o1.png"," static/images/o1.png"," b"," c"," static/images/o4.png"," 8934"
"13987",614,9,1497474851053," 3"," static/images/o3.png"," static/images/o4.png"," Constant2"," static/images/o5.png"," static/images/o3.png"," d"," e"," static/images/o6.png"," 11344"
"13988",614,10,1497474862256," 3"," static/images/o3.png"," static/images/o4.png"," Constant2"," static/images/o4.png"," static/images/o3.png"," c"," b"," static/images/o1.png"," 8944"
"13989",614,11,1497474869644," 3"," static/images/o3.png"," static/images/o4.png"," Constant2"," static/images/o3.png"," static/images/o3.png"," a"," c"," static/images/o4.png"," 5981"
"13997",296,8,1497474858838," 0"," static/images/o6.png"," static/images/o5.png"," Successor1"," static/images/o5.png"," static/images/o5.png"," b"," c"," static/images/o3.png"," 8047"
"13998",296,9,1497474865758," 0"," static/images/o6.png"," static/images/o5.png"," Successor1"," static/images/o6.png"," static/images/o6.png"," a"," b"," static/images/o5.png"," 5592"
"14006",246,8,1497474917913," 1"," static/images/o6.png"," static/images/o3.png"," Successor2"," static/images/o3.png"," static/images/o3.png"," b"," c"," static/images/o1.png"," 8207"
"14007",246,9,1497474923325," 1"," static/images/o6.png"," static/images/o3.png"," Successor2"," static/images/o6.png"," static/images/o6.png"," a"," b"," static/images/o3.png"," 3503"
"14008",246,10,1497474929559," 1"," static/images/o6.png"," static/images/o3.png"," Successor2"," static/images/o1.png"," static/images/o6.png"," c"," d"," static/images/o2.png"," 4617"
"14016",247,8,1497475105530," 2"," static/images/o1.png"," static/images/o6.png"," Constant1"," static/images/o4.png"," static/images/o4.png"," b"," d"," static/images/o2.png"," 4551"
"14017",247,9,1497475113078," 2"," static/images/o1.png"," static/images/o6.png"," Constant1"," static/images/o1.png"," static/images/o1.png"," a"," c"," static/images/o6.png"," 6658"
"14025",559,8,1497475399714," 2"," static/images/o2.png"," static/images/o4.png"," Constant1"," static/images/o5.png"," static/images/o5.png"," b"," d"," static/images/o6.png"," 7757"
"14026",559,9,1497475406585," 2"," static/images/o2.png"," static/images/o4.png"," Constant1"," static/images/o2.png"," static/images/o2.png"," a"," c"," static/images/o4.png"," 5603"
"14034",610,8,1497475612372," 3"," static/images/o1.png"," static/images/o6.png"," Constant2"," static/images/o6.png"," static/images/o1.png"," c"," e"," static/images/o4.png"," 8440"
"14035",610,9,1497475620526," 3"," static/images/o1.png"," static/images/o6.png"," Constant2"," static/images/o1.png"," static/images/o1.png"," a"," c"," static/images/o6.png"," 5361"
"14036",610,10,1497475625244," 3"," static/images/o1.png"," static/images/o6.png"," Constant2"," static/images/o5.png"," static/images/o1.png"," d"," e"," static/images/o4.png"," 3472"
"14037",610,11,1497475628564," 3"," static/images/o1.png"," static/images/o6.png"," Constant2"," static/images/o3.png"," static/images/o3.png"," b"," c"," static/images/o6.png"," 2658"
"14045",463,8,1497476141633," 4"," static/images/o4.png"," static/images/o4.png"," Identity1"," static/images/o4.png"," static/images/o4.png"," a"," a"," static/images/o4.png"," 2681"
"14046",463,9,1497476145258," 4"," static/images/o4.png"," static/images/o4.png"," Identity1"," static/images/o1.png"," static/images/o1.png"," b"," b"," static/images/o1.png"," 2208"
"14054",574,8,1497476178858," 4"," static/images/o2.png"," static/images/o2.png"," Identity1"," static/images/o2.png"," static/images/o2.png"," a"," a"," static/images/o2.png"," 4962"
"14055",574,9,1497476185271," 4"," static/images/o2.png"," static/images/o2.png"," Identity1"," static/images/o3.png"," static/images/o3.png"," b"," c"," static/images/o1.png"," 3747"
"14063",408,8,1497476959028," 2"," static/images/o2.png"," static/images/o3.png"," Constant1"," static/images/o2.png"," static/images/o2.png"," a"," c"," static/images/o3.png"," 6535"
"14064",408,9,1497476964436," 2"," static/images/o2.png"," static/images/o3.png"," Constant1"," static/images/o1.png"," static/images/o1.png"," b"," d"," static/images/o6.png"," 3237"
"14072",192,8,1497477370183," 0"," static/images/o2.png"," static/images/o1.png"," Successor1"," static/images/o1.png"," static/images/o1.png"," b"," a"," static/images/o2.png"," 6687"
"14073",192,9,1497477377198," 0"," static/images/o2.png"," static/images/o1.png"," Successor1"," static/images/o2.png"," static/images/o2.png"," a"," b"," static/images/o1.png"," 4287"
"14081",84,8,1497477904260," 1"," static/images/o1.png"," static/images/o5.png"," Successor2"," static/images/o1.png"," static/images/o1.png"," a"," d"," static/images/o3.png"," 12878"
"14082",84,9,1497477907524," 1"," static/images/o1.png"," static/images/o5.png"," Successor2"," static/images/o2.png"," static/images/o1.png"," c"," d"," static/images/o3.png"," 2479"
"14083",84,10,1497477911523," 1"," static/images/o1.png"," static/images/o5.png"," Successor2"," static/images/o5.png"," static/images/o5.png"," b"," c"," static/images/o2.png"," 2655"
"14091",14,8,1497478349429," 3"," static/images/o4.png"," static/images/o1.png"," Constant2"," static/images/o4.png"," static/images/o4.png"," a"," c"," static/images/o1.png"," 4368"
"14092",14,9,1497478352181," 3"," static/images/o4.png"," static/images/o1.png"," Constant2"," static/images/o5.png"," static/images/o5.png"," b"," c"," static/images/o1.png"," 1983"
"14093",14,10,1497478357356," 3"," static/images/o4.png"," static/images/o1.png"," Constant2"," static/images/o1.png"," static/images/o4.png"," c"," c"," static/images/o1.png"," 4663"
"14094",14,11,1497478361868," 3"," static/images/o4.png"," static/images/o1.png"," Constant2"," static/images/o3.png"," static/images/o4.png"," d"," e"," static/images/o2.png"," 3520"
"14102",347,8,1497478688218," 4"," static/images/o6.png"," static/images/o6.png"," Identity1"," static/images/o1.png"," static/images/o1.png"," b"," b"," static/images/o1.png"," 3672"
"14103",347,9,1497478693104," 4"," static/images/o6.png"," static/images/o6.png"," Identity1"," static/images/o6.png"," static/images/o6.png"," a"," a"," static/images/o6.png"," 3242"
"14111",81,8,1497479016428," 1"," static/images/o4.png"," static/images/o5.png"," Successor2"," static/images/o5.png"," static/images/o5.png"," b"," c"," static/images/o1.png"," 6089"
"14112",81,9,1497479024951," 1"," static/images/o4.png"," static/images/o5.png"," Successor2"," static/images/o1.png"," static/images/o4.png"," c"," d"," static/images/o6.png"," 6522"
"14113",81,10,1497479029453," 1"," static/images/o4.png"," static/images/o5.png"," Successor2"," static/images/o4.png"," static/images/o4.png"," a"," b"," static/images/o5.png"," 2726"
"14121",603,8,1497479265126," 4"," static/images/o4.png"," static/images/o4.png"," Identity1"," static/images/o5.png"," static/images/o5.png"," b"," c"," static/images/o3.png"," 23004"
"14122",603,9,1497479273855," 4"," static/images/o4.png"," static/images/o4.png"," Identity1"," static/images/o4.png"," static/images/o4.png"," a"," c"," static/images/o3.png"," 6463"
"14130",220,8,1497479494329," 2"," static/images/o2.png"," static/images/o5.png"," Constant1"," static/images/o2.png"," static/images/o2.png"," a"," c"," static/images/o5.png"," 8286"
"14131",220,9,1497479500671," 2"," static/images/o2.png"," static/images/o5.png"," Constant1"," static/images/o1.png"," static/images/o1.png"," b"," b"," static/images/o1.png"," 3734"
"14139",300,8,1497479798471," 0"," static/images/o4.png"," static/images/o1.png"," Successor1"," static/images/o1.png"," static/images/o1.png"," b"," a"," static/images/o4.png"," 13383"
"14140",300,9,1497479813880," 0"," static/images/o4.png"," static/images/o1.png"," Successor1"," static/images/o4.png"," static/images/o4.png"," a"," c"," static/images/o6.png"," 11630"
"14147",144,8,1497479902462," 3"," static/images/o3.png"," static/images/o1.png"," Constant2"," static/images/o1.png"," static/images/o3.png"," c"," e"," static/images/o5.png"," 8279"
"14148",144,9,1497479911724," 3"," static/images/o3.png"," static/images/o1.png"," Constant2"," static/images/o4.png"," static/images/o4.png"," b"," c"," static/images/o1.png"," 8090"
"14149",144,10,1497479914827," 3"," static/images/o3.png"," static/images/o1.png"," Constant2"," static/images/o3.png"," static/images/o3.png"," a"," c"," static/images/o1.png"," 2415"
"14150",144,11,1497479921590," 3"," static/images/o3.png"," static/images/o1.png"," Constant2"," static/images/o6.png"," static/images/o3.png"," d"," e"," static/images/o5.png"," 6129"
"14158",351,8,1497480043376," 1"," static/images/o4.png"," static/images/o6.png"," Successor2"," static/images/o6.png"," static/images/o6.png"," b"," c"," static/images/o2.png"," 9296"
"14159",351,9,1497480053192," 1"," static/images/o4.png"," static/images/o6.png"," Successor2"," static/images/o2.png"," static/images/o4.png"," c"," d"," static/images/o1.png"," 8487"
"14160",351,10,1497480057232," 1"," static/images/o4.png"," static/images/o6.png"," Successor2"," static/images/o4.png"," static/images/o4.png"," a"," b"," static/images/o6.png"," 2375"
"14168",241,8,1497480247154," 2"," static/images/o4.png"," static/images/o1.png"," Constant1"," static/images/o6.png"," static/images/o6.png"," b"," d"," static/images/o5.png"," 25829"
"14169",241,9,1497480255401," 2"," static/images/o4.png"," static/images/o1.png"," Constant1"," static/images/o4.png"," static/images/o4.png"," a"," c"," static/images/o1.png"," 4480"
"14177",18,8,1497480305347," 4"," static/images/o3.png"," static/images/o3.png"," Identity1"," static/images/o4.png"," static/images/o4.png"," b"," c"," static/images/o5.png"," 21202"
"14178",18,9,1497480320579," 4"," static/images/o3.png"," static/images/o3.png"," Identity1"," static/images/o3.png"," static/images/o3.png"," a"," b"," static/images/o4.png"," 9449"
"14186",594,8,1497480349351," 0"," static/images/o2.png"," static/images/o5.png"," Successor1"," static/images/o5.png"," static/images/o5.png"," b"," a"," static/images/o2.png"," 4927"
"14187",594,9,1497480360315," 0"," static/images/o2.png"," static/images/o5.png"," Successor1"," static/images/o2.png"," static/images/o2.png"," a"," b"," static/images/o5.png"," 7585"
"14195",370,8,1497480555483," 1"," static/images/o6.png"," static/images/o4.png"," Successor2"," static/images/o6.png"," static/images/o6.png"," a"," b"," static/images/o4.png"," 9737"
"14196",370,9,1497480558419," 1"," static/images/o6.png"," static/images/o4.png"," Successor2"," static/images/o4.png"," static/images/o4.png"," b"," c"," static/images/o2.png"," 2269"
"14197",370,10,1497480561161," 1"," static/images/o6.png"," static/images/o4.png"," Successor2"," static/images/o2.png"," static/images/o6.png"," c"," d"," static/images/o1.png"," 2252"
"14205",650,8,1497480747405," 3"," static/images/o6.png"," static/images/o1.png"," Constant2"," static/images/o1.png"," static/images/o6.png"," c"," d"," static/images/o5.png"," 20268"
"14206",650,9,1497480751417," 3"," static/images/o6.png"," static/images/o1.png"," Constant2"," static/images/o6.png"," static/images/o6.png"," a"," c"," static/images/o1.png"," 2978"
"14207",650,10,1497480757483," 3"," static/images/o6.png"," static/images/o1.png"," Constant2"," static/images/o3.png"," static/images/o3.png"," b"," c"," static/images/o1.png"," 1846"
"14208",650,11,1497480761339," 3"," static/images/o6.png"," static/images/o1.png"," Constant2"," static/images/o5.png"," static/images/o6.png"," d"," e"," static/images/o2.png"," 3048"
"14215",31,8,1497480835400," 4"," static/images/o2.png"," static/images/o2.png"," Identity1"," static/images/o2.png"," static/images/o2.png"," a"," a"," static/images/o2.png"," 6040"
"14216",31,9,1497480845116," 4"," static/images/o2.png"," static/images/o2.png"," Identity1"," static/images/o3.png"," static/images/o3.png"," b"," b"," static/images/o3.png"," 5775"
"14236",190,8,1497481135841," 3"," static/images/o2.png"," static/images/o1.png"," Constant2"," static/images/o5.png"," static/images/o2.png"," d"," c"," static/images/o1.png"," 7682"
"14237",190,9,1497481142490," 3"," static/images/o2.png"," static/images/o1.png"," Constant2"," static/images/o1.png"," static/images/o2.png"," c"," e"," static/images/o3.png"," 4843"
"14238",190,10,1497481147388," 3"," static/images/o2.png"," static/images/o1.png"," Constant2"," static/images/o2.png"," static/images/o2.png"," a"," c"," static/images/o1.png"," 3041"
"14239",190,11,1497481151374," 3"," static/images/o2.png"," static/images/o1.png"," Constant2"," static/images/o6.png"," static/images/o6.png"," b"," c"," static/images/o1.png"," 1605"
"14247",181,8,1497481587418," 1"," static/images/o1.png"," static/images/o2.png"," Successor2"," static/images/o2.png"," static/images/o2.png"," b"," c"," static/images/o3.png"," 5647"
"14248",181,9,1497481597304," 1"," static/images/o1.png"," static/images/o2.png"," Successor2"," static/images/o3.png"," static/images/o1.png"," c"," d"," static/images/o5.png"," 5857"
"14249",181,10,1497481604439," 1"," static/images/o1.png"," static/images/o2.png"," Successor2"," static/images/o1.png"," static/images/o1.png"," a"," b"," static/images/o2.png"," 2750"
"14257",358,8,1497481436061," 0"," static/images/o1.png"," static/images/o4.png"," Successor1"," static/images/o1.png"," static/images/o1.png"," a"," b"," static/images/o4.png"," 6896"
"14258",358,9,1497481445752," 0"," static/images/o1.png"," static/images/o4.png"," Successor1"," static/images/o4.png"," static/images/o4.png"," b"," c"," static/images/o6.png"," 7566"
"14272",621,8,1497482348639," 1"," static/images/o3.png"," static/images/o4.png"," Successor2"," static/images/o4.png"," static/images/o4.png"," b"," b"," static/images/o4.png"," 44256"
"14273",621,9,1497482357887," 1"," static/images/o3.png"," static/images/o4.png"," Successor2"," static/images/o1.png"," static/images/o3.png"," c"," b"," static/images/o4.png"," 5224"
"14274",621,10,1497482364175," 1"," static/images/o3.png"," static/images/o4.png"," Successor2"," static/images/o3.png"," static/images/o3.png"," a"," b"," static/images/o4.png"," 3464"
"14282",129,8,1497482518823," 0"," static/images/o6.png"," static/images/o4.png"," Successor1"," static/images/o4.png"," static/images/o4.png"," b"," c"," static/images/o1.png"," 6070"
"14283",129,9,1497482522831," 0"," static/images/o6.png"," static/images/o4.png"," Successor1"," static/images/o6.png"," static/images/o6.png"," a"," c"," static/images/o1.png"," 3262"
"14291",580,8,1497482426595," 4"," static/images/o5.png"," static/images/o5.png"," Identity1"," static/images/o6.png"," static/images/o6.png"," b"," b"," static/images/o6.png"," 2003"
"14292",580,9,1497482430887," 4"," static/images/o5.png"," static/images/o5.png"," Identity1"," static/images/o5.png"," static/images/o5.png"," a"," a"," static/images/o5.png"," 2880"
"14300",275,8,1497482561179," 3"," static/images/o2.png"," static/images/o1.png"," Constant2"," static/images/o5.png"," static/images/o2.png"," d"," c"," static/images/o1.png"," 8746"
"14301",275,9,1497482565497," 3"," static/images/o2.png"," static/images/o1.png"," Constant2"," static/images/o3.png"," static/images/o3.png"," b"," c"," static/images/o1.png"," 2838"
"14302",275,10,1497482573961," 3"," static/images/o2.png"," static/images/o1.png"," Constant2"," static/images/o1.png"," static/images/o2.png"," c"," e"," static/images/o4.png"," 6445"
"14303",275,11,1497482577311," 3"," static/images/o2.png"," static/images/o1.png"," Constant2"," static/images/o2.png"," static/images/o2.png"," a"," c"," static/images/o1.png"," 2635"
"14311",453,8,1497482557697," 3"," static/images/o3.png"," static/images/o4.png"," Constant2"," static/images/o4.png"," static/images/o3.png"," c"," d"," static/images/o1.png"," 9143"
"14312",453,9,1497482569917," 3"," static/images/o3.png"," static/images/o4.png"," Constant2"," static/images/o1.png"," static/images/o3.png"," d"," a"," static/images/o3.png"," 6315"
"14313",453,10,1497482575454," 3"," static/images/o3.png"," static/images/o4.png"," Constant2"," static/images/o6.png"," static/images/o6.png"," b"," c"," static/images/o4.png"," 3539"
"14314",453,11,1497482581930," 3"," static/images/o3.png"," static/images/o4.png"," Constant2"," static/images/o3.png"," static/images/o3.png"," a"," c"," static/images/o4.png"," 3007"
"14322",443,8,1497482563022," 4"," static/images/o5.png"," static/images/o5.png"," Identity1"," static/images/o5.png"," static/images/o5.png"," a"," b"," static/images/o3.png"," 4549"
"14323",443,9,1497482575550," 4"," static/images/o5.png"," static/images/o5.png"," Identity1"," static/images/o3.png"," static/images/o3.png"," b"," c"," static/images/o6.png"," 11562"
"14331",239,8,1497482845426," 2"," static/images/o4.png"," static/images/o3.png"," Constant1"," static/images/o4.png"," static/images/o4.png"," a"," c"," static/images/o3.png"," 10343"
"14332",239,9,1497482862537," 2"," static/images/o4.png"," static/images/o3.png"," Constant1"," static/images/o1.png"," static/images/o1.png"," b"," a"," static/images/o4.png"," 15869"
"14340",395,8,1497482920277," 0"," static/images/o1.png"," static/images/o2.png"," Successor1"," static/images/o2.png"," static/images/o2.png"," b"," c"," static/images/o4.png"," 17182"
"14341",395,9,1497482929028," 0"," static/images/o1.png"," static/images/o2.png"," Successor1"," static/images/o1.png"," static/images/o1.png"," a"," b"," static/images/o2.png"," 6133"
"14355",115,8,1497483355865," 2"," static/images/o3.png"," static/images/o2.png"," Constant1"," static/images/o4.png"," static/images/o4.png"," b"," d"," static/images/o1.png"," 6856"
"14356",115,9,1497483362554," 2"," static/images/o3.png"," static/images/o2.png"," Constant1"," static/images/o3.png"," static/images/o3.png"," a"," d"," static/images/o1.png"," 3738"
"14364",444,8,1497483414650," 0"," static/images/o2.png"," static/images/o4.png"," Successor1"," static/images/o2.png"," static/images/o2.png"," a"," b"," static/images/o4.png"," 8019"
"14365",444,9,1497483426713," 0"," static/images/o2.png"," static/images/o4.png"," Successor1"," static/images/o4.png"," static/images/o4.png"," b"," a"," static/images/o2.png"," 9200"
"14373",11,8,1497483366592," 3"," static/images/o2.png"," static/images/o1.png"," Constant2"," static/images/o4.png"," static/images/o2.png"," d"," c"," static/images/o1.png"," 10529"
"14374",11,9,1497483379839," 3"," static/images/o2.png"," static/images/o1.png"," Constant2"," static/images/o1.png"," static/images/o2.png"," c"," e"," static/images/o5.png"," 11965"
"14375",11,10,1497483385421," 3"," static/images/o2.png"," static/images/o1.png"," Constant2"," static/images/o2.png"," static/images/o2.png"," a"," c"," static/images/o1.png"," 3957"
"14376",11,11,1497483389195," 3"," static/images/o2.png"," static/images/o1.png"," Constant2"," static/images/o6.png"," static/images/o6.png"," b"," c"," static/images/o1.png"," 2491"
"14384",213,8,1497483508546," 4"," static/images/o6.png"," static/images/o6.png"," Identity1"," static/images/o2.png"," static/images/o2.png"," b"," c"," static/images/o1.png"," 7815"
"14385",213,9,1497483512870," 4"," static/images/o6.png"," static/images/o6.png"," Identity1"," static/images/o6.png"," static/images/o6.png"," a"," a"," static/images/o6.png"," 2993"
"14393",250,8,1497483946272," 2"," static/images/o6.png"," static/images/o2.png"," Constant1"," static/images/o1.png"," static/images/o1.png"," b"," b"," static/images/o1.png"," 11395"
"14394",250,9,1497483958023," 2"," static/images/o6.png"," static/images/o2.png"," Constant1"," static/images/o6.png"," static/images/o6.png"," a"," c"," static/images/o2.png"," 6941"
"14402",169,8,1497484003465," 3"," static/images/o2.png"," static/images/o3.png"," Constant2"," static/images/o2.png"," static/images/o2.png"," a"," e"," static/images/o6.png"," 8504"
"14403",169,9,1497484018869," 3"," static/images/o2.png"," static/images/o3.png"," Constant2"," static/images/o5.png"," static/images/o5.png"," b"," e"," static/images/o6.png"," 14396"
"14404",169,10,1497484023943," 3"," static/images/o2.png"," static/images/o3.png"," Constant2"," static/images/o3.png"," static/images/o2.png"," c"," d"," static/images/o1.png"," 3957"
"14405",169,11,1497484030485," 3"," static/images/o2.png"," static/images/o3.png"," Constant2"," static/images/o1.png"," static/images/o2.png"," d"," e"," static/images/o6.png"," 4472"
"14413",57,8,1497483995481," 2"," static/images/o1.png"," static/images/o6.png"," Constant1"," static/images/o3.png"," static/images/o3.png"," b"," b"," static/images/o3.png"," 6053"
"14414",57,9,1497484004197," 2"," static/images/o1.png"," static/images/o6.png"," Constant1"," static/images/o1.png"," static/images/o1.png"," a"," c"," static/images/o6.png"," 5572"
"14422",332,8,1497484103029," 1"," static/images/o3.png"," static/images/o5.png"," Successor2"," static/images/o2.png"," static/images/o3.png"," c"," d"," static/images/o1.png"," 7602"
"14423",332,9,1497484114083," 1"," static/images/o3.png"," static/images/o5.png"," Successor2"," static/images/o3.png"," static/images/o3.png"," a"," b"," static/images/o5.png"," 9770"
"14424",332,10,1497484117655," 1"," static/images/o3.png"," static/images/o5.png"," Successor2"," static/images/o5.png"," static/images/o5.png"," b"," c"," static/images/o2.png"," 3055"
"14432",316,8,1497484253073," 0"," static/images/o1.png"," static/images/o6.png"," Successor1"," static/images/o1.png"," static/images/o1.png"," a"," b"," static/images/o6.png"," 10819"
"14433",316,9,1497484260064," 0"," static/images/o1.png"," static/images/o6.png"," Successor1"," static/images/o6.png"," static/images/o6.png"," b"," a"," static/images/o1.png"," 5295"
"14441",626,8,1497483808549," 1"," static/images/o2.png"," static/images/o6.png"," Successor2"," static/images/o1.png"," static/images/o2.png"," c"," d"," static/images/o4.png"," 7145"
"14442",626,9,1497483812805," 1"," static/images/o2.png"," static/images/o6.png"," Successor2"," static/images/o2.png"," static/images/o2.png"," a"," b"," static/images/o6.png"," 3177"
"14443",626,10,1497483816525," 1"," static/images/o2.png"," static/images/o6.png"," Successor2"," static/images/o6.png"," static/images/o6.png"," b"," c"," static/images/o1.png"," 2761"
"14451",205,8,1497484776068," 0"," static/images/o5.png"," static/images/o4.png"," Successor1"," static/images/o4.png"," static/images/o4.png"," b"," c"," static/images/o2.png"," 17272"
"14452",205,9,1497484788089," 0"," static/images/o5.png"," static/images/o4.png"," Successor1"," static/images/o5.png"," static/images/o5.png"," a"," c"," static/images/o2.png"," 9689"
"14460",70,8,1497484870828," 2"," static/images/o6.png"," static/images/o4.png"," Constant1"," static/images/o6.png"," static/images/o6.png"," a"," c"," static/images/o4.png"," 8925"
"14461",70,9,1497484881979," 2"," static/images/o6.png"," static/images/o4.png"," Constant1"," static/images/o2.png"," static/images/o2.png"," b"," a"," static/images/o6.png"," 6183"
"14468",152,8,1497484937933," 1"," static/images/o4.png"," static/images/o2.png"," Successor2"," static/images/o2.png"," static/images/o2.png"," b"," d"," static/images/o1.png"," 16334"
"14469",152,9,1497484946614," 1"," static/images/o4.png"," static/images/o2.png"," Successor2"," static/images/o5.png"," static/images/o4.png"," c"," b"," static/images/o2.png"," 5953"
"14470",152,10,1497484952833," 1"," static/images/o4.png"," static/images/o2.png"," Successor2"," static/images/o4.png"," static/images/o4.png"," a"," d"," static/images/o1.png"," 5196"
"14478",592,8,1497485177442," 4"," static/images/o5.png"," static/images/o5.png"," Identity1"," static/images/o1.png"," static/images/o1.png"," b"," c"," static/images/o6.png"," 14552"
"14479",592,9,1497485189011," 4"," static/images/o5.png"," static/images/o5.png"," Identity1"," static/images/o5.png"," static/images/o5.png"," a"," c"," static/images/o6.png"," 8173"
"14487",410,8,1497485198427," 3"," static/images/o3.png"," static/images/o4.png"," Constant2"," static/images/o6.png"," static/images/o3.png"," d"," e"," static/images/o5.png"," 28013"
"14488",410,9,1497485209243," 3"," static/images/o3.png"," static/images/o4.png"," Constant2"," static/images/o3.png"," static/images/o3.png"," a"," c"," static/images/o4.png"," 7990"
"14489",410,10,1497485217308," 3"," static/images/o3.png"," static/images/o4.png"," Constant2"," static/images/o1.png"," static/images/o1.png"," b"," c"," static/images/o4.png"," 5305"
"14490",410,11,1497485228778," 3"," static/images/o3.png"," static/images/o4.png"," Constant2"," static/images/o4.png"," static/images/o3.png"," c"," d"," static/images/o6.png"," 8390"
"14498",184,8,1497485221170," 4"," static/images/o6.png"," static/images/o6.png"," Identity1"," static/images/o2.png"," static/images/o2.png"," b"," b"," static/images/o2.png"," 2716"
"14499",184,9,1497485224083," 4"," static/images/o6.png"," static/images/o6.png"," Identity1"," static/images/o6.png"," static/images/o6.png"," a"," a"," static/images/o6.png"," 2443"
"14507",344,8,1497485740261," 0"," static/images/o4.png"," static/images/o1.png"," Successor1"," static/images/o4.png"," static/images/o4.png"," a"," b"," static/images/o1.png"," 3718"
"14508",344,9,1497485751006," 0"," static/images/o4.png"," static/images/o1.png"," Successor1"," static/images/o1.png"," static/images/o1.png"," b"," a"," static/images/o4.png"," 4335"
"14516",393,8,1497572413228," 2"," static/images/o1.png"," static/images/o5.png"," Constant1"," static/images/o4.png"," static/images/o4.png"," b"," d"," static/images/o3.png"," 4484"
"14517",393,9,1497572420409," 2"," static/images/o1.png"," static/images/o5.png"," Constant1"," static/images/o1.png"," static/images/o1.png"," a"," b"," static/images/o4.png"," 3328"
"14525",543,8,1497486149383," 3"," static/images/o6.png"," static/images/o5.png"," Constant2"," static/images/o5.png"," static/images/o6.png"," c"," d"," static/images/o2.png"," 24967"
"14526",543,9,1497486173461," 3"," static/images/o6.png"," static/images/o5.png"," Constant2"," static/images/o2.png"," static/images/o6.png"," d"," d"," static/images/o2.png"," 18585"
"14527",543,10,1497486188046," 3"," static/images/o6.png"," static/images/o5.png"," Constant2"," static/images/o3.png"," static/images/o3.png"," b"," c"," static/images/o5.png"," 4680"
"14528",543,11,1497486193836," 3"," static/images/o6.png"," static/images/o5.png"," Constant2"," static/images/o6.png"," static/images/o6.png"," a"," c"," static/images/o5.png"," 3002"
"14536",481,8,1497486174301," 1"," static/images/o6.png"," static/images/o5.png"," Successor2"," static/images/o6.png"," static/images/o6.png"," a"," b"," static/images/o5.png"," 7052"
"14537",481,9,1497486178879," 1"," static/images/o6.png"," static/images/o5.png"," Successor2"," static/images/o5.png"," static/images/o5.png"," b"," c"," static/images/o2.png"," 3273"
"14538",481,10,1497486184325," 1"," static/images/o6.png"," static/images/o5.png"," Successor2"," static/images/o2.png"," static/images/o6.png"," c"," d"," static/images/o3.png"," 4123"
"14546",187,8,1497486309585," 1"," static/images/o4.png"," static/images/o1.png"," Successor2"," static/images/o1.png"," static/images/o1.png"," b"," c"," static/images/o2.png"," 8161"
"14547",187,9,1497486314573," 1"," static/images/o4.png"," static/images/o1.png"," Successor2"," static/images/o2.png"," static/images/o4.png"," c"," b"," static/images/o1.png"," 3569"
"14548",187,10,1497486319962," 1"," static/images/o4.png"," static/images/o1.png"," Successor2"," static/images/o4.png"," static/images/o4.png"," a"," b"," static/images/o1.png"," 4959"
"14556",123,8,1497486376559," 3"," static/images/o6.png"," static/images/o2.png"," Constant2"," static/images/o4.png"," static/images/o6.png"," d"," e"," static/images/o1.png"," 6836"
"14557",123,9,1497486382501," 3"," static/images/o6.png"," static/images/o2.png"," Constant2"," static/images/o2.png"," static/images/o6.png"," c"," d"," static/images/o4.png"," 4712"
"14558",123,10,1497486385283," 3"," static/images/o6.png"," static/images/o2.png"," Constant2"," static/images/o5.png"," static/images/o5.png"," b"," c"," static/images/o2.png"," 2419"
"14559",123,11,1497486388340," 3"," static/images/o6.png"," static/images/o2.png"," Constant2"," static/images/o6.png"," static/images/o6.png"," a"," c"," static/images/o2.png"," 2150"
"14567",445,8,1497486582585," 2"," static/images/o4.png"," static/images/o6.png"," Constant1"," static/images/o1.png"," static/images/o1.png"," b"," d"," static/images/o3.png"," 4392"
"14568",445,9,1497486586695," 2"," static/images/o4.png"," static/images/o6.png"," Constant1"," static/images/o4.png"," static/images/o4.png"," a"," c"," static/images/o6.png"," 2707"
"14576",307,8,1497486598675," 4"," static/images/o3.png"," static/images/o3.png"," Identity1"," static/images/o1.png"," static/images/o1.png"," b"," b"," static/images/o1.png"," 4560"
"14577",307,9,1497486602893," 4"," static/images/o3.png"," static/images/o3.png"," Identity1"," static/images/o3.png"," static/images/o3.png"," a"," a"," static/images/o3.png"," 3501"
"14585",421,8,1497486772236," 2"," static/images/o5.png"," static/images/o2.png"," Constant1"," static/images/o4.png"," static/images/o4.png"," b"," d"," static/images/o6.png"," 18276"
"14586",421,9,1497486781685," 2"," static/images/o5.png"," static/images/o2.png"," Constant1"," static/images/o5.png"," static/images/o5.png"," a"," c"," static/images/o2.png"," 8642"
"14594",265,8,1497486886520," 0"," static/images/o2.png"," static/images/o6.png"," Successor1"," static/images/o2.png"," static/images/o2.png"," a"," b"," static/images/o6.png"," 4137"
"14595",265,9,1497486909914," 0"," static/images/o2.png"," static/images/o6.png"," Successor1"," static/images/o6.png"," static/images/o6.png"," b"," c"," static/images/o5.png"," 21413"
"14603",557,8,1497486958317," 0"," static/images/o5.png"," static/images/o6.png"," Successor1"," static/images/o6.png"," static/images/o6.png"," b"," c"," static/images/o3.png"," 10254"
"14604",557,9,1497486966276," 0"," static/images/o5.png"," static/images/o6.png"," Successor1"," static/images/o5.png"," static/images/o5.png"," a"," b"," static/images/o6.png"," 6264"
"14612",297,8,1497487155275," 2"," static/images/o4.png"," static/images/o3.png"," Constant1"," static/images/o1.png"," static/images/o1.png"," b"," d"," static/images/o5.png"," 12195"
"14613",297,9,1497487163878," 2"," static/images/o4.png"," static/images/o3.png"," Constant1"," static/images/o4.png"," static/images/o4.png"," a"," b"," static/images/o1.png"," 7019"
"14621",117,8,1497487120662," 1"," static/images/o5.png"," static/images/o2.png"," Successor2"," static/images/o6.png"," static/images/o5.png"," c"," d"," static/images/o1.png"," 8825"
"14622",117,9,1497487127244," 1"," static/images/o5.png"," static/images/o2.png"," Successor2"," static/images/o5.png"," static/images/o5.png"," a"," d"," static/images/o1.png"," 5738"
"14623",117,10,1497487134287," 1"," static/images/o5.png"," static/images/o2.png"," Successor2"," static/images/o2.png"," static/images/o2.png"," b"," c"," static/images/o6.png"," 4609"
"14631",429,8,1497487526044," 3"," static/images/o6.png"," static/images/o5.png"," Constant2"," static/images/o6.png"," static/images/o6.png"," a"," a"," static/images/o6.png"," 10299"
"14632",429,9,1497487535306," 3"," static/images/o6.png"," static/images/o5.png"," Constant2"," static/images/o4.png"," static/images/o4.png"," b"," b"," static/images/o4.png"," 6355"
"14633",429,10,1497487540787," 3"," static/images/o6.png"," static/images/o5.png"," Constant2"," static/images/o1.png"," static/images/o6.png"," d"," d"," static/images/o1.png"," 3459"
"14634",429,11,1497487548142," 3"," static/images/o6.png"," static/images/o5.png"," Constant2"," static/images/o5.png"," static/images/o6.png"," c"," c"," static/images/o5.png"," 6222"
"14642",303,8,1497488191098," 4"," static/images/o4.png"," static/images/o4.png"," Identity1"," static/images/o3.png"," static/images/o3.png"," b"," b"," static/images/o3.png"," 11587"
"14643",303,9,1497488195703," 4"," static/images/o4.png"," static/images/o4.png"," Identity1"," static/images/o4.png"," static/images/o4.png"," a"," a"," static/images/o4.png"," 3236"
"14651",379,8,1497488109243," 0"," static/images/o1.png"," static/images/o2.png"," Successor1"," static/images/o2.png"," static/images/o2.png"," b"," c"," static/images/o6.png"," 4985"
"14652",379,9,1497488116597," 0"," static/images/o1.png"," static/images/o2.png"," Successor1"," static/images/o1.png"," static/images/o1.png"," a"," b"," static/images/o2.png"," 5546"
"14660",530,8,1497489071680," 4"," static/images/o6.png"," static/images/o6.png"," Identity1"," static/images/o6.png"," static/images/o6.png"," a"," b"," static/images/o3.png"," 7773"
"14661",530,9,1497489089037," 4"," static/images/o6.png"," static/images/o6.png"," Identity1"," static/images/o3.png"," static/images/o3.png"," b"," b"," static/images/o3.png"," 14572"
"14669",95,8,1497491673450," 3"," static/images/o1.png"," static/images/o4.png"," Constant2"," static/images/o6.png"," static/images/o1.png"," d"," c"," static/images/o4.png"," 10044"
"14670",95,9,1497491679381," 3"," static/images/o1.png"," static/images/o4.png"," Constant2"," static/images/o3.png"," static/images/o3.png"," b"," c"," static/images/o4.png"," 4863"
"14671",95,10,1497491683235," 3"," static/images/o1.png"," static/images/o4.png"," Constant2"," static/images/o4.png"," static/images/o1.png"," c"," a"," static/images/o1.png"," 2850"
"14672",95,11,1497491686768," 3"," static/images/o1.png"," static/images/o4.png"," Constant2"," static/images/o1.png"," static/images/o1.png"," a"," c"," static/images/o4.png"," 2399"
"14680",486,8,1497494060188," 2"," static/images/o1.png"," static/images/o6.png"," Constant1"," static/images/o1.png"," static/images/o1.png"," a"," c"," static/images/o6.png"," 10821"
"14681",486,9,1497494069240," 2"," static/images/o1.png"," static/images/o6.png"," Constant1"," static/images/o2.png"," static/images/o2.png"," b"," a"," static/images/o1.png"," 7291"
"14689",561,8,1497539709722," 1"," static/images/o6.png"," static/images/o1.png"," Successor2"," static/images/o6.png"," static/images/o6.png"," a"," b"," static/images/o1.png"," 5392"
"14690",561,9,1497539718321," 1"," static/images/o6.png"," static/images/o1.png"," Successor2"," static/images/o1.png"," static/images/o1.png"," b"," c"," static/images/o3.png"," 6198"
"14691",561,10,1497539723688," 1"," static/images/o6.png"," static/images/o1.png"," Successor2"," static/images/o3.png"," static/images/o6.png"," c"," d"," static/images/o5.png"," 3847"
"14705",243,8,1497539813572," 1"," static/images/o2.png"," static/images/o3.png"," Successor2"," static/images/o2.png"," static/images/o2.png"," a"," b"," static/images/o3.png"," 14591"
"14706",243,9,1497539831422," 1"," static/images/o2.png"," static/images/o3.png"," Successor2"," static/images/o5.png"," static/images/o2.png"," c"," a"," static/images/o2.png"," 16752"
"14707",243,10,1497539839424," 1"," static/images/o2.png"," static/images/o3.png"," Successor2"," static/images/o3.png"," static/images/o3.png"," b"," c"," static/images/o5.png"," 6916"
"14715",620,8,1497539757236," 0"," static/images/o3.png"," static/images/o5.png"," Successor1"," static/images/o5.png"," static/images/o5.png"," b"," a"," static/images/o3.png"," 6615"
"14716",620,9,1497539764010," 0"," static/images/o3.png"," static/images/o5.png"," Successor1"," static/images/o3.png"," static/images/o3.png"," a"," b"," static/images/o5.png"," 5516"
"14724",353,8,1497539783484," 3"," static/images/o1.png"," static/images/o4.png"," Constant2"," static/images/o6.png"," static/images/o6.png"," b"," c"," static/images/o4.png"," 6008"
"14725",353,9,1497539787735," 3"," static/images/o1.png"," static/images/o4.png"," Constant2"," static/images/o1.png"," static/images/o1.png"," a"," c"," static/images/o4.png"," 3466"
"14726",353,10,1497539791924," 3"," static/images/o1.png"," static/images/o4.png"," Constant2"," static/images/o4.png"," static/images/o1.png"," c"," d"," static/images/o2.png"," 3642"
"14727",353,11,1497539795669," 3"," static/images/o1.png"," static/images/o4.png"," Constant2"," static/images/o2.png"," static/images/o1.png"," d"," c"," static/images/o4.png"," 3025"
"14735",1,8,1497539820370," 2"," static/images/o5.png"," static/images/o4.png"," Constant1"," static/images/o2.png"," static/images/o2.png"," b"," d"," static/images/o6.png"," 7347"
"14736",1,9,1497539824751," 2"," static/images/o5.png"," static/images/o4.png"," Constant1"," static/images/o5.png"," static/images/o5.png"," a"," c"," static/images/o4.png"," 2095"
"14744",61,8,1497539869126," 2"," static/images/o4.png"," static/images/o6.png"," Constant1"," static/images/o4.png"," static/images/o4.png"," a"," c"," static/images/o6.png"," 6369"
"14745",61,9,1497539887737," 2"," static/images/o4.png"," static/images/o6.png"," Constant1"," static/images/o1.png"," static/images/o1.png"," b"," a"," static/images/o4.png"," 15589"
"14753",450,8,1497539786116," 1"," static/images/o3.png"," static/images/o1.png"," Successor2"," static/images/o1.png"," static/images/o1.png"," b"," d"," static/images/o4.png"," 8279"
"14754",450,9,1497539790930," 1"," static/images/o3.png"," static/images/o1.png"," Successor2"," static/images/o5.png"," static/images/o3.png"," c"," b"," static/images/o1.png"," 4072"
"14755",450,10,1497539794382," 1"," static/images/o3.png"," static/images/o1.png"," Successor2"," static/images/o3.png"," static/images/o3.png"," a"," b"," static/images/o1.png"," 2870"
"14763",371,8,1497539883834," 3"," static/images/o3.png"," static/images/o4.png"," Constant2"," static/images/o6.png"," static/images/o6.png"," b"," c"," static/images/o4.png"," 18589"
"14764",371,9,1497539930261," 3"," static/images/o3.png"," static/images/o4.png"," Constant2"," static/images/o4.png"," static/images/o3.png"," c"," d"," static/images/o1.png"," 44626"
"14765",371,10,1497539938513," 3"," static/images/o3.png"," static/images/o4.png"," Constant2"," static/images/o1.png"," static/images/o3.png"," d"," c"," static/images/o4.png"," 5800"
"14766",371,11,1497539942325," 3"," static/images/o3.png"," static/images/o4.png"," Constant2"," static/images/o3.png"," static/images/o3.png"," a"," c"," static/images/o4.png"," 2643"
"14774",503,8,1497539939887," 0"," static/images/o6.png"," static/images/o1.png"," Successor1"," static/images/o1.png"," static/images/o1.png"," b"," c"," static/images/o5.png"," 12478"
"14775",503,9,1497539950590," 0"," static/images/o6.png"," static/images/o1.png"," Successor1"," static/images/o6.png"," static/images/o6.png"," a"," b"," static/images/o1.png"," 8627"
"14783",206,8,1497540004416," 4"," static/images/o6.png"," static/images/o6.png"," Identity1"," static/images/o4.png"," static/images/o4.png"," b"," b"," static/images/o4.png"," 9323"
"14784",206,9,1497540019973," 4"," static/images/o6.png"," static/images/o6.png"," Identity1"," static/images/o6.png"," static/images/o6.png"," a"," a"," static/images/o6.png"," 5587"
"14792",396,8,1497539896669," 1"," static/images/o2.png"," static/images/o4.png"," Successor2"," static/images/o3.png"," static/images/o2.png"," c"," d"," static/images/o5.png"," 8420"
"14793",396,9,1497539904500," 1"," static/images/o2.png"," static/images/o4.png"," Successor2"," static/images/o2.png"," static/images/o2.png"," a"," b"," static/images/o4.png"," 6245"
"14794",396,10,1497539910500," 1"," static/images/o2.png"," static/images/o4.png"," Successor2"," static/images/o4.png"," static/images/o4.png"," b"," c"," static/images/o3.png"," 4829"
"14802",291,8,1497539909363," 3"," static/images/o3.png"," static/images/o6.png"," Constant2"," static/images/o3.png"," static/images/o3.png"," a"," c"," static/images/o6.png"," 6847"
"14803",291,9,1497539923562," 3"," static/images/o3.png"," static/images/o6.png"," Constant2"," static/images/o2.png"," static/images/o2.png"," b"," c"," static/images/o6.png"," 3696"
"14804",291,10,1497539929003," 3"," static/images/o3.png"," static/images/o6.png"," Constant2"," static/images/o6.png"," static/images/o3.png"," c"," e"," static/images/o4.png"," 4976"
"14805",291,11,1497539933674," 3"," static/images/o3.png"," static/images/o6.png"," Constant2"," static/images/o5.png"," static/images/o3.png"," d"," e"," static/images/o4.png"," 3551"
"14813",508,8,1497539974535," 2"," static/images/o6.png"," static/images/o2.png"," Constant1"," static/images/o3.png"," static/images/o3.png"," b"," d"," static/images/o5.png"," 17895"
"14814",508,9,1497539986541," 2"," static/images/o6.png"," static/images/o2.png"," Constant1"," static/images/o6.png"," static/images/o6.png"," a"," d"," static/images/o5.png"," 7687"
"14822",623,8,1497540061574," 4"," static/images/o2.png"," static/images/o2.png"," Identity1"," static/images/o2.png"," static/images/o2.png"," a"," c"," static/images/o6.png"," 18147"
"14823",623,9,1497540074227," 4"," static/images/o2.png"," static/images/o2.png"," Identity1"," static/images/o5.png"," static/images/o5.png"," b"," c"," static/images/o6.png"," 9210"
"14831",566,8,1497539959521," 0"," static/images/o6.png"," static/images/o5.png"," Successor1"," static/images/o5.png"," static/images/o5.png"," b"," b"," static/images/o5.png"," 3810"
"14832",566,9,1497539964113," 0"," static/images/o6.png"," static/images/o5.png"," Successor1"," static/images/o6.png"," static/images/o6.png"," a"," c"," static/images/o1.png"," 3635"
"14840",459,8,1497540017096," 1"," static/images/o6.png"," static/images/o1.png"," Successor2"," static/images/o1.png"," static/images/o1.png"," b"," c"," static/images/o4.png"," 15855"
"14841",459,9,1497540021495," 1"," static/images/o6.png"," static/images/o1.png"," Successor2"," static/images/o6.png"," static/images/o6.png"," a"," b"," static/images/o1.png"," 3190"
"14842",459,10,1497540025321," 1"," static/images/o6.png"," static/images/o1.png"," Successor2"," static/images/o4.png"," static/images/o6.png"," c"," d"," static/images/o5.png"," 2618"
"14850",228,8,1497540009416," 0"," static/images/o3.png"," static/images/o5.png"," Successor1"," static/images/o3.png"," static/images/o3.png"," a"," b"," static/images/o5.png"," 4029"
"14851",228,9,1497540018592," 0"," static/images/o3.png"," static/images/o5.png"," Successor1"," static/images/o5.png"," static/images/o5.png"," b"," c"," static/images/o4.png"," 5860"
"14859",68,8,1497540157374," 2"," static/images/o5.png"," static/images/o2.png"," Constant1"," static/images/o5.png"," static/images/o5.png"," a"," c"," static/images/o2.png"," 12145"
"14860",68,9,1497540164600," 2"," static/images/o5.png"," static/images/o2.png"," Constant1"," static/images/o4.png"," static/images/o4.png"," b"," d"," static/images/o6.png"," 6514"
"14868",511,8,1497540021529," 3"," static/images/o3.png"," static/images/o5.png"," Constant2"," static/images/o2.png"," static/images/o2.png"," b"," c"," static/images/o5.png"," 2935"
"14869",511,9,1497540026248," 3"," static/images/o3.png"," static/images/o5.png"," Constant2"," static/images/o3.png"," static/images/o3.png"," a"," e"," static/images/o1.png"," 4016"
"14870",511,10,1497540031328," 3"," static/images/o3.png"," static/images/o5.png"," Constant2"," static/images/o4.png"," static/images/o3.png"," d"," b"," static/images/o2.png"," 3150"
"14871",511,11,1497540035576," 3"," static/images/o3.png"," static/images/o5.png"," Constant2"," static/images/o5.png"," static/images/o3.png"," c"," d"," static/images/o4.png"," 3384"
"14879",632,8,1497540008691," 4"," static/images/o4.png"," static/images/o4.png"," Identity1"," static/images/o6.png"," static/images/o6.png"," b"," b"," static/images/o6.png"," 4252"
"14880",632,9,1497540014763," 4"," static/images/o4.png"," static/images/o4.png"," Identity1"," static/images/o4.png"," static/images/o4.png"," a"," a"," static/images/o4.png"," 4799"
"14888",487,8,1497540085699," 0"," static/images/o2.png"," static/images/o4.png"," Successor1"," static/images/o2.png"," static/images/o2.png"," a"," b"," static/images/o4.png"," 4070"
"14889",487,9,1497540103282," 0"," static/images/o2.png"," static/images/o4.png"," Successor1"," static/images/o4.png"," static/images/o4.png"," b"," c"," static/images/o5.png"," 8944"
"14897",607,8,1497540082616," 2"," static/images/o4.png"," static/images/o6.png"," Constant1"," static/images/o4.png"," static/images/o4.png"," a"," c"," static/images/o6.png"," 4181"
"14898",607,9,1497540087358," 2"," static/images/o4.png"," static/images/o6.png"," Constant1"," static/images/o1.png"," static/images/o1.png"," b"," a"," static/images/o4.png"," 4064"
"14906",569,8,1497540184208," 3"," static/images/o5.png"," static/images/o1.png"," Constant2"," static/images/o2.png"," static/images/o2.png"," b"," c"," static/images/o1.png"," 4888"
"14907",569,9,1497540195831," 3"," static/images/o5.png"," static/images/o1.png"," Constant2"," static/images/o1.png"," static/images/o5.png"," c"," d"," static/images/o4.png"," 9853"
"14908",569,10,1497540212705," 3"," static/images/o5.png"," static/images/o1.png"," Constant2"," static/images/o4.png"," static/images/o5.png"," d"," c"," static/images/o1.png"," 8600"
"14909",569,11,1497540216860," 3"," static/images/o5.png"," static/images/o1.png"," Constant2"," static/images/o5.png"," static/images/o5.png"," a"," c"," static/images/o1.png"," 2589"
"14917",456,8,1497540140117," 1"," static/images/o2.png"," static/images/o1.png"," Successor2"," static/images/o3.png"," static/images/o2.png"," c"," d"," static/images/o6.png"," 5844"
"14918",456,9,1497540150105," 1"," static/images/o2.png"," static/images/o1.png"," Successor2"," static/images/o1.png"," static/images/o1.png"," b"," c"," static/images/o3.png"," 8834"
"14919",456,10,1497540153721," 1"," static/images/o2.png"," static/images/o1.png"," Successor2"," static/images/o2.png"," static/images/o2.png"," a"," b"," static/images/o1.png"," 2394"
"14927",45,8,1497540161657," 4"," static/images/o5.png"," static/images/o5.png"," Identity1"," static/images/o1.png"," static/images/o1.png"," b"," c"," static/images/o4.png"," 8063"
"14928",45,9,1497540171289," 4"," static/images/o5.png"," static/images/o5.png"," Identity1"," static/images/o5.png"," static/images/o5.png"," a"," a"," static/images/o5.png"," 7128"
"14936",544,8,1497540240931," 3"," static/images/o5.png"," static/images/o1.png"," Constant2"," static/images/o1.png"," static/images/o5.png"," c"," a"," static/images/o5.png"," 16845"
"14937",544,9,1497540253098," 3"," static/images/o5.png"," static/images/o1.png"," Constant2"," static/images/o5.png"," static/images/o5.png"," a"," c"," static/images/o1.png"," 9707"
"14938",544,10,1497540257994," 3"," static/images/o5.png"," static/images/o1.png"," Constant2"," static/images/o6.png"," static/images/o6.png"," b"," c"," static/images/o1.png"," 2755"
"14939",544,11,1497540267987," 3"," static/images/o5.png"," static/images/o1.png"," Constant2"," static/images/o2.png"," static/images/o5.png"," d"," c"," static/images/o1.png"," 8408"
"14947",480,8,1497540210632," 0"," static/images/o1.png"," static/images/o3.png"," Successor1"," static/images/o3.png"," static/images/o3.png"," b"," c"," static/images/o6.png"," 7835"
"14948",480,9,1497540217197," 0"," static/images/o1.png"," static/images/o3.png"," Successor1"," static/images/o1.png"," static/images/o1.png"," a"," b"," static/images/o3.png"," 5104"
"14956",50,8,1497540272445," 4"," static/images/o6.png"," static/images/o6.png"," Identity1"," static/images/o4.png"," static/images/o4.png"," b"," c"," static/images/o3.png"," 9374"
"14957",50,9,1497540275733," 4"," static/images/o6.png"," static/images/o6.png"," Identity1"," static/images/o6.png"," static/images/o6.png"," a"," a"," static/images/o6.png"," 2099"
"14965",485,8,1497540360485," 2"," static/images/o4.png"," static/images/o5.png"," Constant1"," static/images/o6.png"," static/images/o6.png"," b"," d"," static/images/o3.png"," 6767"
"14966",485,9,1497540366403," 2"," static/images/o4.png"," static/images/o5.png"," Constant1"," static/images/o4.png"," static/images/o4.png"," a"," d"," static/images/o3.png"," 4327"
"14974",361,8,1497540240611," 1"," static/images/o3.png"," static/images/o2.png"," Successor2"," static/images/o3.png"," static/images/o3.png"," a"," b"," static/images/o2.png"," 11776"
"14975",361,9,1497540252348," 1"," static/images/o3.png"," static/images/o2.png"," Successor2"," static/images/o5.png"," static/images/o3.png"," c"," d"," static/images/o1.png"," 10088"
"14976",361,10,1497540255868," 1"," static/images/o3.png"," static/images/o2.png"," Successor2"," static/images/o2.png"," static/images/o2.png"," b"," c"," static/images/o5.png"," 2249"
"14984",479,8,1497540360055," 1"," static/images/o2.png"," static/images/o6.png"," Successor2"," static/images/o3.png"," static/images/o2.png"," c"," d"," static/images/o5.png"," 6753"
"14985",479,9,1497540365952," 1"," static/images/o2.png"," static/images/o6.png"," Successor2"," static/images/o2.png"," static/images/o2.png"," a"," b"," static/images/o6.png"," 3718"
"14986",479,10,1497540371061," 1"," static/images/o2.png"," static/images/o6.png"," Successor2"," static/images/o6.png"," static/images/o6.png"," b"," c"," static/images/o3.png"," 3686"
"14994",43,8,1497540304882," 2"," static/images/o1.png"," static/images/o4.png"," Constant1"," static/images/o2.png"," static/images/o2.png"," b"," d"," static/images/o6.png"," 14708"
"14995",43,9,1497540314009," 2"," static/images/o1.png"," static/images/o4.png"," Constant1"," static/images/o1.png"," static/images/o1.png"," a"," c"," static/images/o4.png"," 7605"
"15003",46,8,1497540567503," 4"," static/images/o4.png"," static/images/o4.png"," Identity1"," static/images/o4.png"," static/images/o4.png"," a"," a"," static/images/o4.png"," 8346"
"15004",46,9,1497540579249," 4"," static/images/o4.png"," static/images/o4.png"," Identity1"," static/images/o1.png"," static/images/o1.png"," b"," c"," static/images/o5.png"," 9066"
"15012",475,8,1497540624389," 0"," static/images/o2.png"," static/images/o5.png"," Successor1"," static/images/o5.png"," static/images/o5.png"," b"," b"," static/images/o5.png"," 4443"
"15013",475,9,1497540631660," 0"," static/images/o2.png"," static/images/o5.png"," Successor1"," static/images/o2.png"," static/images/o2.png"," a"," c"," static/images/o3.png"," 3425"
"15021",564,8,1497540878070," 3"," static/images/o1.png"," static/images/o3.png"," Constant2"," static/images/o6.png"," static/images/o1.png"," d"," c"," static/images/o3.png"," 38148"
"15022",564,9,1497540903744," 3"," static/images/o1.png"," static/images/o3.png"," Constant2"," static/images/o5.png"," static/images/o5.png"," b"," c"," static/images/o3.png"," 17845"
"15023",564,10,1497540934557," 3"," static/images/o1.png"," static/images/o3.png"," Constant2"," static/images/o3.png"," static/images/o1.png"," c"," c"," static/images/o3.png"," 28958"
"15024",564,11,1497540947195," 3"," static/images/o1.png"," static/images/o3.png"," Constant2"," static/images/o1.png"," static/images/o1.png"," a"," c"," static/images/o3.png"," 11160"
"15032",268,8,1497540940929," 4"," static/images/o4.png"," static/images/o4.png"," Identity1"," static/images/o6.png"," static/images/o6.png"," b"," b"," static/images/o6.png"," 3831"
"15033",268,9,1497540949680," 4"," static/images/o4.png"," static/images/o4.png"," Identity1"," static/images/o4.png"," static/images/o4.png"," a"," a"," static/images/o4.png"," 7631"
"15041",122,8,1497540977820," 2"," static/images/o1.png"," static/images/o2.png"," Constant1"," static/images/o4.png"," static/images/o4.png"," b"," a"," static/images/o1.png"," 11556"
"15042",122,9,1497540984867," 2"," static/images/o1.png"," static/images/o2.png"," Constant1"," static/images/o1.png"," static/images/o1.png"," a"," a"," static/images/o1.png"," 5423"
"15050",4,8,1497541133531," 0"," static/images/o6.png"," static/images/o1.png"," Successor1"," static/images/o1.png"," static/images/o1.png"," b"," c"," static/images/o3.png"," 7036"
"15051",4,9,1497541139085," 0"," static/images/o6.png"," static/images/o1.png"," Successor1"," static/images/o6.png"," static/images/o6.png"," a"," b"," static/images/o1.png"," 3352"
"15059",76,8,1497541892295," 4"," static/images/o6.png"," static/images/o6.png"," Identity1"," static/images/o1.png"," static/images/o1.png"," b"," b"," static/images/o1.png"," 3996"
"15060",76,9,1497541897145," 4"," static/images/o6.png"," static/images/o6.png"," Identity1"," static/images/o6.png"," static/images/o6.png"," a"," a"," static/images/o6.png"," 2833"
"15068",105,8,1497541939551," 1"," static/images/o5.png"," static/images/o3.png"," Successor2"," static/images/o3.png"," static/images/o3.png"," b"," d"," static/images/o6.png"," 6156"
"15069",105,9,1497541949250," 1"," static/images/o5.png"," static/images/o3.png"," Successor2"," static/images/o5.png"," static/images/o5.png"," a"," b"," static/images/o3.png"," 8532"
"15070",105,10,1497541955147," 1"," static/images/o5.png"," static/images/o3.png"," Successor2"," static/images/o4.png"," static/images/o5.png"," c"," d"," static/images/o6.png"," 4461"
"15078",125,8,1497541943878," 3"," static/images/o2.png"," static/images/o6.png"," Constant2"," static/images/o6.png"," static/images/o2.png"," c"," e"," static/images/o1.png"," 8513"
"15079",125,9,1497541952582," 3"," static/images/o2.png"," static/images/o6.png"," Constant2"," static/images/o3.png"," static/images/o2.png"," d"," a"," static/images/o2.png"," 7529"
"15080",125,10,1497541960444," 3"," static/images/o2.png"," static/images/o6.png"," Constant2"," static/images/o4.png"," static/images/o4.png"," b"," e"," static/images/o1.png"," 5575"
"15081",125,11,1497541968646," 3"," static/images/o2.png"," static/images/o6.png"," Constant2"," static/images/o2.png"," static/images/o2.png"," a"," c"," static/images/o6.png"," 7201"
"15089",47,8,1497541948455," 4"," static/images/o2.png"," static/images/o2.png"," Identity1"," static/images/o3.png"," static/images/o3.png"," b"," b"," static/images/o3.png"," 3753"
"15090",47,9,1497541951953," 4"," static/images/o2.png"," static/images/o2.png"," Identity1"," static/images/o2.png"," static/images/o2.png"," a"," a"," static/images/o2.png"," 2177"
"15098",567,8,1497542141938," 2"," static/images/o6.png"," static/images/o3.png"," Constant1"," static/images/o6.png"," static/images/o6.png"," a"," c"," static/images/o3.png"," 5332"
